PacketCounter,SampleTimeFine,Euler_X,Euler_Y,Euler_Z,Acc_X,Acc_Y,Acc_Z,Gyr_X,Gyr_Y,Gyr_Z,
0,79880621,-44.93981171,38.03062439,-160.4075317,0,0,0,0,0,0, 
1,79897288,-44.0060997,39.2791481,-159.6317139,-4.997345924,-3.298741341,6.276892185,-58.39060593,93.73600006,25.88157845, 
2,79913955,-42.77147293,40.48071671,-158.3697052,-4.860229015,-2.85650301,5.83831501,-74.59944153,98.11740112,33.77419662, 
3,79930622,-42.20108032,41.91030502,-157.3849945,-4.415419579,-2.575200796,5.33245039,-96.42601776,101.9972305,44.85261536, 
4,79947289,-42.53214264,43.49816513,-156.5319061,-4.558330059,-2.955827951,5.380980015,-124.8587112,103.756897,57.78173447, 
5,79963956,-43.70480347,45.18115234,-155.8287354,-4.934263706,-3.140785694,5.319851398,-151.9720917,104.8589554,69.76157379, 
6,79980623,-45.4329567,47.09920883,-155.1894531,-5.371409416,-3.219695091,4.60662508,-171.0354462,108.2230072,85.93741608, 
7,79997290,-47.5343895,49.30976868,-154.5107727,-6.52381897,-3.798145771,4.636417866,-185.2103882,106.3382263,104.6652222, 
8,80013957,-49.95614624,51.62176895,-153.76091,-7.641298771,-4.723728657,4.875648022,-200.9130402,96.56365967,115.0840836, 
9,80030624,-52.52578735,53.896698,-152.9100952,-8.53912735,-5.472981453,5.49006319,-209.943634,83.24104309,121.2258606, 
10,80047291,-54.79245758,56.11875916,-151.6921997,-8.995962143,-5.829439163,5.423314095,-208.0842285,66.60282898,131.7685089, 
11,80063958,-56.52275085,58.32474899,-149.9564514,-9.162506104,-5.572540283,4.731411934,-201.4808502,49.42781448,144.4828339, 
12,80080625,-57.63787842,60.60208893,-147.7055969,-9.291511536,-5.494677544,3.542203426,-191.2963409,36.56208038,157.5937195, 
13,80097292,-58.21734238,62.95776749,-145.0898438,-9.721270561,-5.758839607,2.315829992,-178.3927612,28.47376442,166.5385132, 
14,80113959,-58.20190811,65.34194946,-142.2463226,-10.20639229,-6.392419338,1.786467552,-154.8600464,23.27332878,170.0385437, 
15,80130626,-57.42455673,67.5453186,-139.2794189,-10.47183418,-8.070571899,2.204207897,-116.1953049,16.75333786,161.7768402, 
16,80147293,-55.9054184,69.38140106,-136.4972382,-10.3253727,-9.355493546,2.974361897,-61.77746201,13.58074856,143.1132202, 
17,80163960,-53.73635864,70.78982544,-134.1577606,-10.02550411,-9.474924088,3.490928411,1.860045552,13.9029026,120.5168152, 
18,80180627,-51.20659637,71.76957703,-132.3554382,-9.618292809,-8.240716934,3.325554132,53.83062363,13.98210144,96.91012573, 
19,80197294,-48.82242584,72.38065338,-131.0743103,-9.400822639,-6.324151993,3.000908375,74.71811676,12.41812038,74.82382202, 
20,80213961,-46.93746567,72.66333771,-130.1449738,-9.347088814,-4.760345936,2.814810038,64.65227509,6.599575043,54.80960464, 
21,80230628,-45.79567337,72.63754272,-129.4818268,-9.375198364,-3.681887627,2.832523584,34.97468948,-1.924343944,35.88095474, 
22,80247295,-45.32175827,72.36365509,-128.8428345,-9.593851089,-2.92690134,2.804158688,-4.092182636,-12.26686668,22.32433891, 
23,80263962,-45.29022598,71.93904877,-128.0144653,-9.613604546,-2.556372643,2.687403202,-41.80644989,-21.89298248,15.56323147, 
24,80280629,-45.38138962,71.43335724,-126.8133926,-9.589184761,-2.413002253,2.666946888,-70.62558746,-31.43272591,14.4960165, 
25,80297296,-45.44021606,70.88959503,-125.2265854,-9.207694054,-2.693976402,2.440757513,-90.66194153,-39.67388535,16.04981995, 
26,80313963,-45.47863007,70.36048126,-123.4216995,-8.692202568,-2.980537415,2.041245461,-101.6247635,-43.6788063,18.43227959, 
27,80330630,-45.46665192,69.93300629,-121.5691147,-8.552394867,-3.367418289,1.865839481,-100.9959183,-41.70697784,22.70398521, 
28,80347297,-45.33724213,69.57968903,-119.8333054,-8.420922279,-3.874846458,1.930277348,-87.06192017,-38.28304672,23.75170898, 
29,80363964,-45.08676147,69.26599884,-118.4447708,-8.269365311,-3.92226553,2.267742872,-59.9911499,-32.45272827,20.22208214, 
30,80380631,-44.75682449,68.99985504,-117.4277115,-8.327876091,-3.268855095,2.441843033,-34.24216843,-25.36894989,16.54293442, 
31,80397298,-44.40629196,68.79836273,-116.6502762,-8.558791161,-2.694406033,2.564947605,-19.63728523,-19.23981285,15.09253407, 
32,80413965,-44.01517105,68.64311981,-115.9622803,-8.727409363,-2.535103798,2.684579849,-12.36493587,-16.03233719,14.84685898, 
33,80430632,-43.62207794,68.52188873,-115.372551,-8.804310799,-2.57793808,2.586121559,-6.951930523,-13.12565136,13.92275047, 
34,80447299,-43.18199158,68.42449951,-114.8383865,-8.938774109,-2.376307487,2.507587194,-1.19306004,-11.32485294,13.32587814, 
35,80463966,-42.67468643,68.3629303,-114.2769241,-8.903966904,-2.074125528,2.437521458,1.152726412,-10.26151562,14.53911495, 
36,80480633,-42.11768723,68.33823395,-113.6212463,-8.916130066,-1.88591814,2.436747551,-1.289978743,-10.1124382,16.87417984, 
37,80497300,-41.54382324,68.34414673,-112.8592453,-8.958849907,-1.78516531,2.408480167,-6.380884647,-10.35278034,19.18143654, 
38,80513967,-40.9294548,68.36917877,-111.9786453,-8.997375488,-1.848158002,2.480581045,-10.7278738,-11.21802521,21.30597687, 
39,80530634,-40.32990265,68.41197968,-111.0533142,-8.950450897,-2.101316929,2.364685059,-14.25993061,-10.98403168,22.24726868, 
40,80547301,-39.78684235,68.46977997,-110.1680908,-9.128700256,-2.335361481,2.352118731,-15.52067947,-9.667110443,21.77723312, 
41,80563968,-39.25667953,68.52790833,-109.3369827,-9.287614822,-2.483518839,2.466731787,-13.35313129,-8.842172623,20.58989334, 
42,80580635,-38.74227524,68.58470154,-108.6039505,-9.21622467,-2.499290943,2.479982138,-8.889139175,-7.481181622,18.64971352, 
43,80597302,-38.24824142,68.65058136,-107.9696121,-9.152861595,-2.340729713,2.49905014,-4.658629417,-5.638558865,17.10791969, 
44,80613969,-37.82435989,68.71842194,-107.4295807,-9.145468712,-2.298481226,2.505547523,-3.663336515,-4.209924698,15.34902191, 
45,80630636,-37.49472809,68.79547119,-106.9772644,-9.156106949,-2.15831399,2.465494871,-4.476334572,-2.563589573,13.96571064, 
46,80647303,-37.17981339,68.88957214,-106.549408,-9.243913651,-2.121059418,2.472805023,-4.059154987,-1.405549049,13.94057465, 
47,80663970,-36.87511444,68.98871613,-106.1612549,-9.239386559,-2.143619061,2.528414488,-2.512678146,-0.626019657,13.21020794, 
48,80680637,-36.52426529,69.08614349,-105.7607956,-9.232214928,-1.970456362,2.584813833,-0.495100141,-0.820765793,13.16525555, 
49,80697304,-36.15340805,69.18135071,-105.3172073,-9.079163551,-1.807536006,2.457594872,-1.77784884,-1.409717321,13.61821556, 
50,80713971,-35.80357361,69.28296661,-104.8530273,-8.93315506,-1.815884233,2.425592899,-4.263486862,-1.291617513,13.98902702, 
51,80730638,-35.47848511,69.38726044,-104.3873291,-9.076636314,-1.890899777,2.499148607,-5.89285326,-1.120012164,13.91195965, 
52,80747305,-35.1338501,69.48355103,-103.9069214,-9.214189529,-2.104759216,2.589856625,-5.601686954,-1.614222407,13.72977448, 
53,80763972,-34.77782822,69.56528473,-103.451416,-9.111358643,-2.283701181,2.633348227,-3.559885263,-1.946694493,12.68716145, 
54,80780639,-34.40087509,69.64916992,-103.0469666,-9.020131111,-2.220526695,2.648327351,0.536893666,-1.139157295,11.82413387, 
55,80797306,-34.04053116,69.72928619,-102.7168808,-9.113195419,-2.108237267,2.730251312,3.696964264,-0.358712375,10.35694695, 
56,80813973,-33.70976639,69.7927475,-102.4310608,-9.272150993,-1.993360639,2.834963322,4.384806633,-0.589815855,8.966420174, 
57,80830640,-33.3739624,69.83422852,-102.1213379,-9.40020752,-1.9002949,2.868434906,3.308655739,-1.883750558,8.574398041, 
58,80847307,-33.0635376,69.83903503,-101.7989349,-9.289510727,-1.938338757,2.880451441,1.042174459,-3.801911354,7.513864517, 
59,80863974,-32.80812836,69.81507874,-101.5055313,-9.083399773,-1.903893352,2.815817356,-0.650761187,-4.865331173,6.036017895, 
60,80880641,-32.61719131,69.76845551,-101.2744827,-9.004896164,-1.951169848,2.839928865,-1.021197557,-5.277951241,4.186306, 
61,80897308,-32.48993301,69.70786285,-101.1157303,-9.076743126,-1.916686296,2.835827112,-0.784875572,-5.143964291,2.457301617, 
62,80913975,-32.37271118,69.64643097,-100.9787216,-9.276265144,-1.763977289,2.858004332,-0.173801392,-4.92922163,2.021610737, 
63,80930642,-32.26453781,69.56681061,-100.8247833,-9.352808952,-1.648195982,2.862085104,-1.686666608,-6.030056,1.691731691, 
64,80947309,-32.18815994,69.4765625,-100.6614151,-9.216815948,-1.599026561,2.854026556,-4.1431427,-6.675137997,1.465328455, 
65,80963976,-32.14766693,69.38322449,-100.5130386,-9.123998642,-1.637008667,2.868350506,-5.469568253,-6.666257858,1.039882302, 
66,80980643,-32.12022018,69.2986145,-100.3885574,-9.172780991,-1.613512993,2.883185625,-4.928293705,-5.949126244,0.844034672, 
67,80997310,-32.10474014,69.21818542,-100.2892838,-9.306765556,-1.592191577,2.917507887,-4.24599123,-5.451850891,0.466509879, 
68,81013977,-32.12007904,69.13195801,-100.2273102,-9.312421799,-1.532115221,2.968088627,-4.021034241,-5.318266392,-0.448907465, 
69,81030644,-32.13260651,69.05857086,-100.1644058,-9.21161747,-1.338562727,2.968439341,-3.926126003,-4.672582626,-0.090560101, 
70,81047311,-32.15162659,69.00045776,-100.0885544,-9.268353462,-1.216995597,3.058452368,-5.066749573,-4.037502766,0.54654938, 
71,81063978,-32.18564606,68.94626617,-100.0067673,-9.463627815,-1.163064003,3.150273323,-6.330750942,-3.890833139,0.686382174, 
72,81080645,-32.21267319,68.89788055,-99.90229034,-9.461109161,-1.039096951,3.14731288,-7.217091084,-3.842283249,1.185727477, 
73,81097312,-32.23269272,68.8677597,-99.77201843,-9.294569016,-0.903490067,3.061436176,-8.273703575,-3.199878454,2.129504204, 
74,81113979,-32.25687027,68.87702179,-99.63543701,-9.31496048,-0.802169085,3.072858572,-8.915034294,-1.266426802,3.389393806, 
75,81130646,-32.2403717,68.92552948,-99.47359467,-9.468484879,-0.750127792,3.153795242,-7.930482388,0.444969624,4.981402874, 
76,81147313,-32.14847946,69.01539612,-99.26681519,-9.50290966,-0.732544661,3.204696178,-5.966986179,2.05257678,6.989080429, 
77,81163980,-32.00626373,69.15808868,-99.03875732,-9.482453346,-0.793595731,3.232684135,-4.190412045,4.536395073,8.909572601, 
78,81180647,-31.81966972,69.36200714,-98.81277466,-9.522186279,-0.891172409,3.218351603,-1.462787151,7.748116493,10.66381741, 
79,81197314,-31.59503174,69.61553955,-98.61305237,-9.674236298,-1.048790693,3.263225794,2.243302822,10.65366173,11.59779835, 
80,81213981,-31.3033886,69.90666962,-98.41976166,-9.756446838,-1.105620861,3.332964897,6.582587242,12.74612522,12.49214935, 
81,81230648,-30.96098137,70.21961212,-98.22415161,-9.658027649,-1.083829522,3.322156429,9.454277039,13.96977711,13.02815056, 
82,81247315,-30.61711502,70.54920959,-98.03752136,-9.505702019,-1.052089334,3.289883137,10.00791073,15.0602684,13.18844986, 
83,81263982,-30.33460236,70.89349365,-97.89374542,-9.288963318,-1.122440577,3.086882353,8.711574554,16.39097977,12.71820259, 
84,81280649,-30.19796371,71.241745,-97.87229156,-9.23281765,-1.25793004,2.894299269,6.87360239,17.89344597,10.64414406, 
85,81297316,-30.18461037,71.60050201,-97.96260071,-9.253806114,-1.289210081,2.738945484,5.828820229,19.54536629,9.067372322, 
86,81313983,-30.16893578,71.94854736,-98.07596588,-9.261636734,-1.220553875,2.802251577,7.290475845,19.19658661,8.380874634, 
87,81330650,-30.18961716,72.30130768,-98.19894409,-8.996862411,-1.117688179,2.539394379,5.667676449,19.52402687,8.394523621, 
88,81347317,-30.34507561,72.67794037,-98.36334991,-8.870116234,-1.046140432,2.266485453,-0.032585815,21.10173798,8.516648293, 
89,81363984,-30.59434319,73.07289124,-98.51674652,-8.979342461,-1.115274906,2.272657633,-6.272237301,21.87475014,9.35499382, 
90,81380651,-30.88785744,73.48722076,-98.65974426,-8.83983326,-1.224408746,2.274705648,-9.501162529,22.69714546,10.24965, 
91,81397318,-31.19999123,73.91977692,-98.85745239,-8.597423553,-1.458308339,2.380306005,-7.447635174,24.02481079,10.19888687, 
92,81413985,-31.59689903,74.36589813,-99.16091156,-8.30343914,-1.43507874,2.204396486,-6.394771099,25.5313797,9.389461517, 
93,81430652,-32.08914948,74.83732605,-99.53426361,-8.172440529,-1.317909122,2.258462906,-8.02142334,27.27321243,9.585858345, 
94,81447319,-32.68838882,75.32090759,-99.96186829,-7.978294373,-1.356096148,2.328645229,-11.24601364,28.17916107,9.704731941, 
95,81463986,-33.46068573,75.80941772,-100.5057602,-7.767855167,-1.539267898,2.513581038,-14.81140232,29.18452072,8.944925308, 
96,81480653,-34.47903061,76.28833771,-101.2384949,-7.550628185,-1.977448463,2.680757999,-18.5069313,30.00880814,7.079113007, 
97,81497320,-35.63721085,76.8024826,-102.173584,-7.449908257,-2.606503725,3.08725214,-14.99001312,33.09508133,6.92916441, 
98,81513987,-36.63139725,77.33715057,-103.2454376,-7.432623863,-3.684252501,3.920926571,2.975888968,34.86764908,7.320565224, 
99,81530654,-37.39862061,77.85418701,-104.6074524,-7.515680313,-4.733180046,5.177024364,33.73872375,36.01119614,4.892836571, 
100,81547321,-37.87199783,78.34570313,-106.3236618,-7.933761597,-5.451720238,6.343290329,72.31816101,37.30314255,1.712953329, 
101,81563988,-37.77487946,78.76351929,-108.1660309,-8.852973938,-5.823042393,7.84686327,114.1323242,34.63895798,-1.133796692, 
102,81580655,-36.79250336,79.05963135,-109.7569199,-10.19645405,-6.049210072,9.387943268,152.5616455,27.16636467,-2.74402523, 
103,81597322,-34.73392868,79.08542633,-110.7492828,-11.61555099,-6.265273094,10.81810856,181.8946533,10.40711975,-6.910929203, 
104,81613989,-31.31839561,78.73596191,-110.6857147,-12.19821739,-6.314364433,10.97123718,201.0832367,-14.69304848,-9.287774086, 
105,81630656,-27.31608772,77.90689087,-110.4123688,-12.29358768,-7.428616524,11.40222073,223.9510651,-40.98805618,-19.81297493, 
106,81647323,-23.62070274,76.50759125,-110.8167572,-13.32156658,-7.759729862,10.90906048,245.2455444,-68.71934509,-39.15604019, 
107,81663990,-20.26499176,74.51017761,-111.81147,-15.03646851,-6.886178493,10.21512318,258.9879761,-100.1503448,-56.74542618, 
108,81680657,-17.01220894,71.9152832,-113.1764984,-16.15690231,-5.93737793,10.11463928,273.4354858,-134.0086975,-70.32732391, 
109,81697324,-13.73872471,68.82619476,-114.6085281,-17.7497406,-4.269584656,9.41550827,277.1690063,-164.6698456,-75.28098297, 
110,81713991,-10.73514557,65.30117798,-116.1333923,-19.60789108,-4.997152328,9.182486534,264.2669067,-192.524231,-78.26995087, 
111,81730658,-8.236924171,61.37506866,-118.2929611,-21.21155739,-6.825962067,9.575586319,265.4749451,-216.0967407,-94.99497223, 
112,81747325,-6.266912937,57.09059906,-121.2807846,-22.06656647,-7.484327316,8.534790039,272.0800781,-236.8434448,-122.3612823, 
113,81763992,-5.243052006,52.48138428,-125.0585403,-22.88004875,-5.624473572,6.483799934,246.553299,-255.7428284,-156.7397766, 
114,81780659,-5.321437359,47.52913284,-129.2102051,-23.48198318,-4.346834183,6.514984131,186.1248627,-275.4130554,-185.7843781, 
115,81797326,-6.318605423,42.06531906,-133.4913635,-25.11836052,-4.171328068,8.322995186,121.1950836,-302.7032471,-213.6204834, 
116,81813993,-7.895386219,35.91322708,-137.394455,-25.75061989,-3.395050764,8.876919746,52.82827377,-339.7556458,-225.3383026, 
117,81830660,-10.01958752,29.04922485,-140.5989838,-23.21751595,-2.527797461,8.456101418,-24.03006554,-378.6835632,-223.4410706, 
118,81847327,-12.64574146,21.52898598,-143.1483917,-20.1957531,-3.592666388,8.297412872,-91.9805069,-413.5134277,-223.508194, 
119,81863994,-15.39191151,13.43346596,-145.1553802,-16.91964531,-6.037729263,7.161777973,-128.2140503,-442.7874451,-228.5253906, 
120,81880661,-17.70826149,4.926674366,-146.9104156,-14.03598118,-9.322060585,6.01341486,-121.5423737,-459.9291077,-244.7234192, 
121,81897328,-18.87236214,-3.802671194,-148.6074829,-12.39180088,-10.24295235,4.737017155,-67.82983398,-466.3929749,-261.0906982, 
122,81913995,-19.00066757,-12.66149902,-150.3273773,-11.48926258,-8.966223717,2.834070683,-21.02769661,-471.3428345,-269.6586304, 
123,81930662,-18.21219635,-21.46396446,-152.2902222,-10.63098145,-8.232530594,0.759080887,14.46202564,-466.8225098,-276.3546753, 
124,81947329,-16.43902588,-30.02646446,-154.7190857,-9.936458588,-6.887764454,-1.502999663,44.82613373,-453.6885376,-279.8864136, 
125,81963996,-13.40113354,-38.09188843,-157.821228,-8.737365723,-4.930737495,-3.20368886,79.54862213,-430.0689697,-275.3833313, 
126,81980663,-8.901339531,-45.56677628,-161.9443817,-7.649287224,-3.044167995,-4.633455276,106.1156998,-406.1018677,-269.3070068, 
127,81997330,-2.841507196,-52.23542023,-167.4325256,-6.436324596,-0.948310256,-5.636235237,116.1196671,-377.009552,-257.6919861, 
128,82013997,4.786817551,-58.14127731,-174.7132416,-5.252514362,1.511030436,-5.10087204,99.27136993,-358.9528503,-244.3930817, 
129,82030664,14.46398926,-63.36753845,175.5833893,-3.029289722,2.450694084,-3.459408283,72.40439606,-356.3228455,-228.6855164, 
130,82047331,27.12613869,-67.55693817,162.5118256,-0.513427258,2.851063013,-1.172762275,45.63732147,-349.3370056,-215.6608887, 
131,82063998,43.04999161,-70.19642639,145.425293,-0.981983721,3.129033566,1.809702516,-1.772568226,-340.0481262,-211.3844604, 
132,82080665,60.92967987,-70.85816956,125.7628784,-1.372518659,0.925260544,1.266148806,-40.48151398,-332.6558838,-210.1870728, 
133,82097332,77.01220703,-69.51802063,108.0348282,-1.407303691,1.094903469,-1.220467448,-36.59012222,-306.7706604,-202.9040985, 
134,82113999,88.60348511,-66.91876984,95.14451599,-0.782554507,1.628848195,-3.777501583,-23.20803833,-264.7021179,-189.3813782, 
135,82130666,96.3510437,-63.55323792,86.46248627,-0.482776105,2.303403378,-3.033021212,-8.462765694,-226.3302155,-191.4152679, 
136,82147333,101.5540771,-59.78982925,80.41001129,0.70113641,3.764533281,-2.795129299,-7.668974876,-204.9895172,-195.5368652, 
137,82164000,104.4116058,-56.02509689,76.52333069,2.794867516,5.282827854,-4.446377277,-26.19804001,-171.1162262,-191.6869354, 
138,82180667,105.7508469,-52.64611435,74.19158173,4.272070885,5.718931198,-5.419491291,-33.34181976,-131.1296234,-173.9760437, 
139,82197334,106.0642471,-49.59215927,73.12134552,5.107384682,5.445486546,-5.388907433,-31.19617271,-88.57585907,-164.6203461, 
140,82214001,105.9791565,-46.89442825,72.79267883,4.346582413,6.657580376,-3.45618248,-19.83337212,-56.8684845,-151.3983307, 
141,82230668,105.8158951,-44.64637756,72.6522522,3.704250574,8.605443001,-2.217519283,-15.85226154,-42.17063522,-127.5426788, 
142,82247335,105.4222031,-42.89331055,72.71090698,4.927210331,9.639780998,-1.881106973,-21.1940918,-25.44530296,-101.3873672, 
143,82264002,105.0669174,-41.64506149,72.85112,5.708434582,9.30681324,-0.759447992,-15.65690041,-13.26549816,-73.28417206, 
144,82280669,104.8701553,-40.8732605,72.86710358,7.102900505,10.35152721,-0.894463301,-11.15756702,-10.85723019,-44.30875778, 
145,82297336,104.6455765,-40.56630707,72.64433289,7.233231068,13.88732243,-0.244080335,-22.16644096,-14.09534073,-14.61750793, 
146,82314003,104.463295,-40.55857086,71.99790192,4.279123783,16.51965904,-0.255177885,-36.11207962,-28.25276566,7.582257271, 
147,82330670,104.1816711,-40.95828247,70.99645996,3.873681545,17.9712429,-1.74088645,-56.05933762,-37.77656174,35.17278671, 
148,82347337,104.3938446,-41.73955154,69.87438965,7.895118713,15.59529686,-1.690981388,-31.66807365,-37.00180435,58.6341362, 
149,82364004,105.164917,-42.76099396,69.05635834,9.306365013,12.41823101,-2.343512058,13.34757328,-19.08827591,69.27360535, 
150,82380671,106.1030731,-43.8296814,68.60691833,9.191880226,11.72036076,-4.000931263,37.88023758,-1.214362383,67.76970673, 
151,82397338,106.5952072,-44.75795746,68.35071564,9.636329651,11.0424614,-4.453184605,18.86979294,5.532087803,57.26047134, 
152,82414005,106.6436462,-45.48452377,68.24417114,9.966815948,8.726978302,-4.021927357,-1.557621598,8.565747261,43.77056885, 
153,82430672,106.5432816,-46.08740234,68.38770294,9.635144234,8.423745155,-3.381452084,0.209083915,16.50126266,33.63037872, 
154,82447339,106.6257553,-46.78768921,68.67810822,8.675726891,10.09667969,-2.565421343,17.62374687,23.91230392,37.49383163, 
155,82464006,106.96064,-47.8339653,69.02494812,7.591555595,11.63804245,-2.092502356,35.43614578,32.0550499,56.66778183, 
156,82480673,107.3874969,-49.38605881,69.44809723,6.700285435,12.43859577,-2.323008299,44.71107864,43.95116043,84.67115021, 
157,82497340,107.805397,-51.59985352,69.97198486,5.6614604,12.71482658,-2.363675594,49.37700653,59.64289856,121.2452469, 
158,82514007,108.0552521,-54.46834564,70.60517883,4.497978687,11.9486599,-2.149740219,45.40429688,75.16607666,157.4245758, 
159,82530674,107.9123001,-57.97708511,71.46932983,3.505141258,10.69663715,-2.160440922,34.59344864,92.88137817,192.074707, 
160,82547341,107.0076447,-62.06129837,72.83818054,2.423929214,9.454253197,-2.078398943,16.96158791,113.1564407,222.2034454, 
161,82564008,105.2926025,-66.66532898,74.75965118,1.548477888,7.781946182,-1.663271904,1.185719371,125.2448959,252.2279053, 
162,82580675,102.5851135,-71.60469818,77.49822235,1.256003976,5.16599369,-1.32816267,-8.691756248,128.6868591,274.276062, 
163,82597342,97.54283142,-76.76255798,82.40834808,1.292087913,4.057166576,-1.523754835,-18.69696617,133.6021576,291.2212524, 
164,82614009,84.9907608,-81.99567413,94.51394653,0.800802171,3.653386354,-1.448403835,-38.30579758,141.0514526,310.0423584, 
165,82630676,39.03332901,-85.93273163,139.4051819,-0.545772076,2.542095423,-0.730186939,-75.88096619,141.8789063,323.2565613, 
166,82647343,-30.59730721,-83.806633,-152.9298248,-2.528283358,1.641285658,-0.504499078,-129.9781036,131.4017181,334.5761719, 
167,82664010,-52.91740036,-78.15585327,-133.7787018,-3.595307112,0.81681639,-2.924940586,-202.4556427,130.4327545,357.3304443, 
168,82680677,-62.83537292,-71.49069977,-127.5849457,-4.399030685,-2.573962927,-2.49578023,-235.4386139,130.4142761,390.7955322, 
169,82697344,-68.38396454,-64.57757568,-125.1473465,-4.084662437,-6.942107677,-0.428156435,-196.7274475,121.8387222,401.0709839, 
170,82714011,-71.51247406,-57.65180206,-123.9894943,-3.557458878,-8.91285038,0.104112104,-126.5632706,111.3255692,402.4932251, 
171,82730678,-73.1037674,-50.71146774,-123.3601151,-2.588178635,-10.68508911,-1.29547894,-64.68626404,105.8537445,403.9456787, 
172,82747345,-73.06838226,-43.63706589,-123.3688583,-2.353478909,-9.489229202,-2.682993412,1.773982525,124.1884689,406.3879089, 
173,82764012,-72.25940704,-36.21310043,-123.6823654,-2.634362936,-7.286139488,-4.412117004,36.43848038,146.8602295,421.209137, 
174,82780679,-71.71862793,-28.74059677,-124.2629013,-2.40777421,-10.1915102,-6.707568645,13.75470734,166.9420929,417.5402222, 
175,82797346,-71.30371094,-21.80706596,-125.6708527,-2.005819321,-18.08703232,-7.093292713,-11.11161423,204.7553558,370.4877014, 
176,82814013,-70.36422729,-15.39278793,-127.8884125,-0.996191025,-21.76704788,-6.052257061,14.0167408,245.8457184,322.1959839, 
177,82830680,-68.99274445,-9.187398911,-130.6921844,-0.509709895,-21.14811516,-5.118999004,46.6078186,283.8093262,292.0674744, 
178,82847347,-67.6157074,-3.394656897,-134.2247467,-0.428009838,-22.45731544,-3.92788744,59.6010437,324.5744019,245.0254517, 
179,82864014,-66.24926758,1.576644063,-138.6380157,-1.799993873,-24.3878479,-0.80347079,78.07157135,360.7487793,170.6519012, 
180,82880681,-64.66326904,5.578239918,-143.6508026,-4.052169323,-23.42381668,5.202086449,114.2672501,373.0361938,93.71159363, 
181,82897348,-62.77203369,8.793901443,-148.5183411,-6.734207153,-18.02762604,11.80497074,150.3778381,345.4516602,44.77418137, 
182,82914015,-61.8635788,11.02600384,-153.4810181,-5.537447929,-19.6655941,9.305019379,106.1617355,322.1418762,-17.52421379, 
183,82930682,-61.41152191,12.06893635,-158.8495331,-6.995354176,-20.89255905,8.527373314,92.03268433,307.6147461,-94.62914276, 
184,82947349,-61.3740654,12.07014751,-164.3421631,-9.682868958,-18.98663521,8.544598579,71.61885071,283.1670227,-153.9471283, 
185,82964016,-61.79062653,11.2540102,-169.4625244,-10.58434391,-15.54039288,10.87689495,37.60937119,241.5335541,-185.9362488, 
186,82980683,-62.64594269,9.928382874,-173.8757935,-9.037489891,-12.12138939,12.10599804,-2.143215179,193.4370728,-191.3768005, 
187,82997350,-63.79615402,8.307837486,-177.5579071,-7.571282864,-9.591795921,11.40861988,-33.53667831,151.178299,-184.7794647, 
188,83014017,-65.13689423,6.427844524,179.3780975,-6.739830971,-8.528974533,10.47269917,-56.46197128,116.1611252,-180.0684204, 
189,83030684,-66.50730896,4.315216064,176.784668,-5.831003189,-8.142252922,9.332649231,-67.31453705,89.6958847,-178.790451, 
190,83047351,-67.70081329,2.18981576,174.6244507,-5.516418457,-6.852977276,7.910845757,-63.97483826,69.8779068,-167.5254059, 
191,83064018,-68.63790894,0.300850749,172.9215088,-5.156810284,-4.48967123,7.082639694,-53.77871323,52.96530151,-142.9076691, 
192,83080685,-69.4309082,-1.231893539,171.7336884,-3.788636208,-3.289145708,6.144734859,-47.98751068,33.92063904,-111.0930252, 
193,83097352,-70.19430542,-2.524937868,170.9213104,-1.787793517,-2.611900568,4.729657173,-47.28111267,19.22834396,-89.34347534, 
194,83114019,-71.36089325,-2.849100351,170.6071472,-3.304115534,4.931549072,2.297414064,-70.80220032,11.65179348,-24.26602745, 
195,83130686,-72.67887878,-2.491244078,170.5353851,-3.261795521,-2.132173777,4.729601383,-79.2427063,10.99181843,19.39837646, 
196,83147353,-71.78039551,-2.030511141,170.4666138,-2.009951353,-5.423000336,5.421844006,53.74175644,12.63245583,25.37172318, 
197,83164020,-69.99607086,-1.477533579,170.4958038,-1.457138658,-7.535041809,2.28026104,107.0715027,9.473539352,32.23968124, 
198,83180687,-68.36136627,-0.922908604,170.5872192,-0.078830242,-11.18518543,2.444516897,98.17209625,6.963340282,33.36681366, 
199,83197354,-67.56778717,-0.397657663,170.872757,0.884138823,-11.76152039,2.983673573,47.81701279,-3.795568228,35.95302963, 
200,83214021,-67.99295044,0.090757884,171.280426,2.18010354,-12.51618958,2.784996033,-25.41755486,-11.29291534,36.69782257, 
201,83230688,-68.96085358,0.20394136,171.5448303,3.161255836,-14.67836857,3.073916674,-58.06823349,-11.98702526,12.47360229, 
202,83247355,-69.64506531,-0.113689005,171.5977325,3.53619957,-14.47518349,3.836574554,-40.9878273,-9.410762787,-16.34794807, 
203,83264022,-69.7243576,-0.577829063,171.5641632,3.165127993,-11.932127,4.159289837,-4.701173306,-7.47371769,-26.42596436, 
204,83280689,-69.21646881,-0.76107955,171.5128479,1.325077534,-7.490768909,4.476509571,30.4921608,-0.657557189,-10.95500088, 
205,83297356,-68.37750244,-0.813287914,171.5749359,-0.230120987,-7.393111706,5.22627449,50.41630173,-4.288026333,-1.127698779, 
206,83314023,-67.61541748,-1.03483808,171.6376495,-0.864346445,-8.280341148,4.168869972,45.78224945,-8.15152359,-10.45868301, 
207,83330690,-67.06616211,-1.190704823,171.7295532,-1.040457606,-8.200883865,3.229179859,33.05353546,-8.37557888,-6.053970814, 
208,83347357,-66.83946228,-1.262444258,171.8742065,-0.443166196,-8.601763725,2.673802853,13.79240608,-9.358376503,-0.123389304, 
209,83364024,-66.81346893,-1.295737863,172.0209045,0.165758163,-8.839030266,2.257691622,1.776939154,-8.56440258,2.056706667, 
210,83380691,-66.93779755,-1.344497919,172.1430664,0.19767651,-9.00039196,2.088076115,-7.24815321,-7.576035023,0.6104213, 
211,83397358,-67.0022583,-1.423239112,172.2373047,0.071674332,-9.241147995,2.452199936,-3.664870262,-6.737819195,-1.721801281, 
212,83414025,-66.83014679,-1.518547177,172.3378143,-0.131260544,-9.179958344,3.177638531,10.56658268,-7.473892689,-2.489684105, 
213,83430692,-66.40460968,-1.650020719,172.4628296,-0.434388638,-9.273191452,3.606997967,25.83354568,-9.698147774,-3.864147902, 
214,83447359,-65.72266388,-1.815244913,172.5864716,-0.841659367,-9.720453262,4.045138836,41.23921967,-10.48854637,-5.658714771, 
215,83464026,-64.66708374,-1.993016601,172.7270966,-1.049512744,-9.962337494,4.798325062,63.72015381,-11.82457447,-5.76252079, 
216,83480693,-63.1327858,-2.152061224,172.91185,-1.103282928,-9.695102692,5.390433788,92.56288147,-13.84783077,-3.323900938, 
217,83497360,-61.06776047,-2.247373343,173.1810303,-1.266368508,-8.668953896,5.443412781,124.6198654,-16.64818764,2.861014843, 
218,83514027,-58.48223114,-2.120014668,173.5584717,-1.379354835,-7.308690071,4.900865078,156.0863495,-15.42730713,18.35073662, 
219,83530694,-55.47706985,-1.727196455,174.0331726,-1.734768391,-6.598752022,4.849078655,181.3519135,-10.75731468,35.62326431, 
220,83547361,-51.89377975,-1.060330153,174.5990906,-1.982979536,-6.232697964,4.732739925,215.9058075,-3.407902002,52.6865654, 
221,83564028,-47.70992279,-0.07806813,175.2841034,-2.274291277,-5.081138611,4.158287525,251.5240173,6.876871109,71.87762451, 
222,83580695,-43.18009567,1.27112031,176.0810394,-2.327277422,-4.112179279,3.149844885,271.37677,22.93025208,91.55779266, 
223,83597362,-38.54833984,2.92099452,176.9936523,-2.507670403,-3.535499334,2.811074018,275.9973145,39.23666,106.4736786, 
224,83614029,-34.22066498,4.824584484,178.0366211,-2.95423007,-2.691437244,2.919109344,255.54216,55.04961395,118.3288498, 
225,83630696,-30.4095726,6.937805653,179.2623901,-3.328162432,-2.28609848,3.302635431,221.2487335,68.13632202,129.9134827, 
226,83647363,-27.21442032,9.246499062,-179.184021,-3.532477617,-1.584410429,3.775830984,178.7144012,76.93440247,147.9169312, 
227,83664030,-24.73841286,11.77591515,-177.3264923,-3.223380804,-0.915912032,3.787888765,128.3530121,88.42453766,165.2681122, 
228,83680697,-23.37267494,14.42407703,-175.2732849,-3.727396011,-0.929536939,4.347297668,54.14776611,96.13207245,174.6080017, 
229,83697364,-23.59802437,17.10125732,-173.0090332,-5.348844528,-1.046893835,4.929593563,-50.28794098,95.13839722,184.1921387, 
230,83714031,-25.33157539,19.74801064,-170.5578461,-6.569211006,-2.189817667,4.857901096,-150.3387604,86.64177704,193.0131073, 
231,83730698,-28.02381134,22.31468964,-168.1073914,-6.388576508,-5.811892986,4.583359241,-214.1190186,75.82414246,191.9647522, 
232,83747365,-30.9539814,24.91665459,-165.9858856,-5.530116558,-10.24302483,4.156192303,-226.5810852,78.26255798,178.5092316, 
233,83764032,-33.23709106,27.61592293,-164.2286835,-5.358063221,-12.24069405,5.294691086,-183.3595276,86.69494629,166.2276306, 
234,83780699,-34.51844406,30.39331055,-162.5846558,-5.743997097,-11.08763885,5.818191051,-124.3686447,89.94824982,164.5615387, 
235,83797366,-35.0455513,33.24353409,-161.0508423,-5.635074139,-9.355839729,5.895439625,-79.77261353,95.50241089,161.8235931, 
236,83814033,-35.35422134,36.062603,-159.6455688,-5.628772259,-8.016391754,5.971822739,-66.07093048,97.87236023,154.2280121, 
237,83830700,-35.70607758,38.88557053,-158.2773743,-5.857705593,-6.999546528,5.548666477,-70.65914154,99.61698914,151.5163727, 
238,83847367,-36.06885529,41.75513077,-156.8378906,-6.174787521,-6.565593719,5.375576496,-77.25663757,100.5197601,154.3555298, 
239,83864034,-36.28056335,44.67468262,-155.2547302,-6.714491367,-6.284636497,5.597975254,-77.36230469,100.1714859,159.3682709, 
240,83880701,-36.31637573,47.57535553,-153.4006958,-7.467634678,-5.832932949,5.382091045,-81.96990204,94.25626373,165.2695313, 
241,83897368,-36.10936737,50.46243286,-151.1221619,-8.284806252,-5.393366337,5.106582642,-90.44412231,86.42086029,174.7821198, 
242,83914035,-35.48788071,53.33108521,-148.335144,-8.734098434,-5.328320026,4.75931406,-93.98342133,78.85253143,184.4662628, 
243,83930702,-34.41679764,56.17388916,-145.0910797,-9.381291389,-5.57990551,4.746734142,-94.40758514,75.04473114,189.870575, 
244,83947369,-32.87064743,58.92432785,-141.3788452,-10.54342842,-5.935952663,5.224172115,-94.93160248,70.75148773,191.0042267, 
245,83964036,-30.84257317,61.4577713,-137.1934967,-11.57747459,-5.940425396,5.68857193,-95.97931671,62.80529785,186.3428345, 
246,83980703,-28.38928795,63.69298172,-132.520401,-11.94325256,-5.196584702,5.548274517,-101.4733658,52.36771393,178.6456909, 
247,83997370,-25.9480896,65.65036774,-127.603508,-11.69862366,-4.59250021,5.001190662,-119.9857864,46.47909546,166.0310211, 
248,84014037,-24.21642494,67.3046875,-122.9032059,-11.31752968,-4.040793419,4.589836597,-154.4881897,41.84765244,144.1783752, 
249,84030704,-23.74725151,68.63965607,-118.8675766,-10.73303604,-3.602140903,4.555866718,-196.1069794,35.99103928,115.7296753, 
250,84047371,-24.54839516,69.65179443,-115.755928,-10.11563683,-3.80794239,5.260702133,-222.3374786,28.00552559,85.72555542, 
251,84064038,-26.20041847,70.36841583,-113.7222137,-9.583763123,-5.296456337,5.994766712,-213.5970001,20.82721329,56.39211273, 
252,84080705,-28.12534142,70.89244843,-112.9066849,-9.061044693,-6.487133026,6.100417137,-161.469696,20.51139832,29.16497231, 
253,84097372,-29.7632637,71.33127594,-113.279068,-8.696378708,-6.435246468,5.823424816,-76.95927429,26.59249878,6.938374519, 
254,84114039,-30.8256588,71.76773071,-114.6229553,-8.72924614,-5.539298534,5.619997978,12.91511917,35.62703323,-8.149486542, 
255,84130706,-31.3254509,72.17782593,-116.5922623,-9.196158409,-4.137348652,5.303192139,82.52498627,40.18854904,-17.80582619, 
256,84147373,-31.24815941,72.55025482,-118.6097641,-9.350281715,-2.494658947,5.048477173,120.1358566,38.47126389,-18.83474159, 
257,84164040,-30.7491951,72.85145569,-120.2735367,-9.234928131,-1.157366157,4.999384403,125.3631897,31.18933105,-15.18864059, 
258,84180707,-30.10779572,73.06324768,-121.4219437,-9.057602882,-0.373907328,5.079435825,104.4608154,21.66029358,-10.02113628, 
259,84197374,-29.70538521,73.09518433,-122.1512299,-9.254760742,-0.385662019,5.399972916,66.08189392,8.549308777,-9.131834984, 
260,84214041,-29.75481796,72.86727905,-122.606308,-9.541689873,-0.880330145,5.469789028,23.19597054,-7.31081152,-12.76747131, 
261,84230708,-30.24424934,72.41496277,-122.8759689,-9.673636436,-0.977273464,4.95731163,-13.891469,-20.42891312,-16.77978325, 
262,84247375,-30.78701973,71.82575226,-122.8297348,-9.729846001,-1.178057432,4.770360947,-35.18777084,-30.18681335,-16.23587799, 
263,84264042,-31.16921043,71.12015533,-122.5873642,-9.604270935,-2.397336245,4.680446148,-36.71658325,-37.93797684,-16.83097458, 
264,84280709,-31.29180527,70.32141876,-122.348526,-9.258018494,-3.264194727,4.417188644,-20.88753891,-42.64951706,-19.75942802, 
265,84297376,-31.10133934,69.47133636,-122.1837921,-9.031084061,-3.435824156,4.368503571,2.140933275,-44.56163406,-22.41510582, 
266,84314043,-30.71027946,68.54985046,-122.1858978,-9.037392616,-3.410205126,4.699989319,23.57246399,-46.53522873,-27.27667427, 
267,84330710,-30.34068489,67.45639801,-122.353157,-9.593126297,-2.692662239,5.391253948,31.46919823,-53.66698837,-35.34580612, 
268,84347377,-30.18699074,66.18614197,-122.4851532,-9.730417252,-1.611056089,4.903237343,16.48419762,-63.26106262,-39.84920883, 
269,84364044,-30.36421776,64.82196808,-122.5437469,-9.545930862,-1.602644682,4.558774471,-7.45873642,-68.93549347,-41.27196121, 
270,84380711,-30.66793251,63.43484497,-122.5186234,-9.473552704,-2.252741098,4.480351925,-19.60459518,-71.01042938,-40.44804764, 
271,84397378,-30.80270195,61.97121048,-122.4149246,-9.482748985,-3.193654537,5.365778446,-13.63661194,-75.91407013,-41.17591858, 
272,84414045,-30.66114616,60.44882965,-122.2804108,-9.027682304,-3.514112949,5.172597408,1.400894403,-79.44741058,-42.05260086, 
273,84430712,-30.38493347,58.93016815,-122.1973877,-8.833890915,-3.369460821,4.993068218,12.25912762,-78.68736267,-42.79507828, 
274,84447379,-30.14621544,57.44003296,-122.1543579,-8.835457802,-2.770975351,4.45462513,12.1251564,-76.80760956,-42.54570389, 
275,84464046,-30.01691628,56.03368378,-122.1091003,-8.809576988,-2.136622906,4.087043285,5.496362209,-72.66919708,-39.67184448, 
276,84480713,-29.73715782,54.63959885,-121.9711533,-8.852974892,-3.141304016,5.053889751,9.994840622,-73.81188202,-36.29061508, 
277,84497380,-29.0718441,53.25582504,-121.8407288,-8.740617752,-4.321193218,5.269603729,33.62029648,-73.5341568,-35.46666718, 
278,84514047,-28.15778542,51.89266586,-121.8352203,-8.838859558,-3.882978201,4.956400394,54.62945938,-70.82569122,-37.69036865, 
279,84530714,-27.32670021,50.53282547,-121.8705063,-8.946558952,-2.446350098,4.436353207,51.58800125,-70.53221893,-37.86359024, 
280,84547381,-26.84514618,49.11479568,-121.8541031,-8.835129738,-2.217324257,4.783287525,28.22912216,-75.0239563,-36.94031906, 
281,84564048,-26.5598259,47.58528137,-121.8029709,-8.648387909,-3.423311472,5.358466148,14.9239502,-81.93696594,-38.24458313, 
282,84580715,-26.20729446,46.06097031,-121.8504944,-8.315555573,-4.133491993,5.111168861,23.34895325,-80.13458252,-41.2429657, 
283,84597382,-25.70364571,44.58162689,-121.9550247,-8.194654465,-3.506619692,4.708632469,34.82834244,-76.98023224,-41.68255997, 
284,84614049,-25.18008614,43.09960175,-122.0735245,-8.107024193,-3.267379522,5.057065487,36.51379395,-77.25094604,-41.73802185, 
285,84630716,-24.6737709,41.61790085,-122.2510147,-7.759790897,-3.313062191,5.306853771,37.75322342,-76.51377869,-43.56141281, 
286,84647383,-23.99512291,40.18769455,-122.4516907,-7.287875175,-3.384877443,5.084539413,48.82303238,-73.69793701,-42.65090942, 
287,84664050,-23.1254673,38.95691299,-122.7574463,-7.381465912,-3.387503862,4.701449394,64.10920715,-61.3483429,-41.51862717, 
288,84680717,-22.06432152,37.88018799,-123.0995483,-7.016902447,-2.98592782,4.759895802,76.69685364,-52.84259415,-38.76035309, 
289,84697384,-20.93136787,36.96697998,-123.4639053,-6.81264019,-2.587317228,4.789662838,81.55899048,-44.06356049,-35.37831116, 
290,84714051,-19.85406494,36.22025299,-123.8536682,-6.683178902,-2.069086313,4.87833643,78.8937912,-34.97144318,-32.40935516, 
291,84730718,-18.89570808,35.62840652,-124.2201309,-6.642252445,-1.546957493,4.80402565,70.72550201,-27.19288063,-27.83721924, 
292,84747385,-18.1047287,35.21591949,-124.5363541,-6.428731918,-1.475121021,4.528653622,58.78233719,-18.25637245,-21.84074402, 
293,84764052,-17.43424606,34.98711014,-124.8090439,-6.423442364,-1.599831343,4.709125519,49.96784592,-8.779998779,-16.32685661, 
294,84780719,-16.8218708,34.90441132,-125.0288925,-6.500023842,-1.37206471,5.097665787,44.63731384,-1.448505044,-11.24138927, 
295,84797386,-16.32615852,34.94431686,-125.2036285,-6.460835457,-1.145987749,5.25506115,36.08415985,4.760616779,-7.058298111, 
296,84814053,-15.9793644,35.06317139,-125.3586731,-6.459805489,-1.493670344,5.676954746,26.48096657,8.887566566,-4.894709587, 
297,84830720,-15.71624184,35.25432587,-125.4907913,-6.557925701,-1.658367753,6.014699936,20.69288826,12.63939285,-2.706633806, 
298,84847387,-15.47830009,35.52591705,-125.5461044,-6.638021469,-1.219241142,5.998628616,16.54273605,16.18478584,2.133567572, 
299,84864054,-15.30190659,35.83565903,-125.5126266,-6.77800703,-1.052488804,6.326752663,9.753177643,17.16665649,6.815716743, 
300,84880721,-15.24495029,36.11904907,-125.4727859,-6.856494904,-1.537124634,6.780172825,2.343141317,15.49656582,6.606135368, 
301,84897388,-15.34518814,36.37474442,-125.4797821,-6.723538876,-1.881045341,6.823777199,-5.43730545,14.42998886,3.944167137, 
302,84914055,-15.50933456,36.62981796,-125.5139923,-6.708333492,-1.913758993,7.009600163,-8.292779922,14.68408203,2.674877882, 
303,84930722,-15.64316177,36.87334061,-125.5463257,-6.678315163,-1.795931578,7.163567543,-6.528830051,13.94342518,2.594991446, 
304,84947389,-15.7420969,37.10636902,-125.5832443,-6.691262722,-1.642178178,7.069951057,-4.263397217,13.35552216,2.225975752, 
305,84964056,-15.80232906,37.28402328,-125.6001205,-6.818639278,-1.815099597,7.497086048,-2.664292097,9.855106354,2.239652395, 
306,84980723,-15.78493977,37.40291595,-125.6179199,-6.739345551,-2.095291853,7.769061565,2.026528358,6.444796562,1.223249912, 
307,84997390,-15.67582417,37.50193787,-125.6134644,-6.518894196,-1.759122968,7.665391445,6.721055031,4.996116638,1.904522538, 
308,85014057,-15.60010242,37.59833908,-125.5971146,-6.396530628,-1.571268559,7.519235134,4.275437832,4.683589458,2.38794899, 
309,85030724,-15.62425041,37.66810608,-125.5741882,-6.457074642,-1.736970067,7.559232712,-1.967586756,3.051458597,2.238370419, 
310,85047391,-15.70454502,37.70813751,-125.5379257,-6.488983154,-1.907546043,7.617319107,-5.833120823,1.150407434,2.356881142, 
311,85064058,-15.75689793,37.74372864,-125.4827881,-6.411874294,-2.021755219,7.496145725,-4.854343414,0.642930031,3.140168428, 
312,85080725,-15.7708559,37.79520035,-125.4099121,-6.283266544,-1.983194947,7.234539032,-3.205090523,1.32435596,4.200470448, 
313,85097392,-15.79005241,37.8290596,-125.3408432,-6.357904434,-1.966742992,7.47759819,-3.380344868,0.347064853,3.731462479, 
314,85114059,-15.84051323,37.82577896,-125.294342,-6.445951462,-2.163309097,7.602070332,-4.42986393,-1.509465456,2.089906693, 
315,85130726,-15.84028816,37.82442856,-125.2816391,-6.430229187,-2.544447422,7.490918159,-0.142707527,-0.965822816,0.577335835, 
316,85147393,-15.70394039,37.8500061,-125.2970047,-6.365778446,-2.72706604,7.35498333,9.068741798,0.949731827,-0.256325543, 
317,85164060,-15.39654922,37.92596436,-125.3172913,-6.349439144,-2.41082859,7.26134491,19.5320797,3.921232939,0.341981262, 
318,85180727,-15.0084219,37.99723816,-125.3559494,-6.357177258,-2.290735483,7.233521461,25.06848717,3.870933294,-0.588536382, 
319,85197394,-14.74939251,38.15743256,-125.4210739,-6.300757408,-1.384479403,5.944228649,18.31720352,9.33372879,-0.440968037, 
320,85214061,-14.68464184,38.2069931,-125.3875198,-7.248267651,-1.36817944,7.216644287,3.005650282,1.68103826,2.326209307, 
321,85230728,-14.78148746,38.13257217,-125.3875504,-7.194729328,-2.184747696,7.172707081,-5.451836586,-5.156214714,-1.132510424, 
322,85247395,-14.96148491,38.07226563,-125.4362488,-6.878529072,-2.158029556,6.437379837,-8.625060081,-3.781235933,-3.165109634, 
323,85264062,-15.32534504,37.99988937,-125.5105438,-6.892089844,-1.548375845,6.031047344,-18.69614983,-4.194283962,-4.560111046, 
324,85280729,-15.94157982,37.80828857,-125.5828629,-7.287055016,-1.670263171,6.589280605,-33.91459274,-11.12611103,-6.475438595, 
325,85297396,-16.74013138,37.50754547,-125.7116241,-7.552488327,-2.69858551,6.6986022,-42.79512405,-16.62797546,-11.0828743, 
326,85314063,-17.58583832,37.15715027,-125.8909225,-7.546495914,-2.489980698,6.292368889,-43.79299927,-18.64844131,-14.54923534, 
327,85330730,-18.50976753,36.79504395,-126.0994568,-7.295371532,-2.273748636,5.743842125,-47.45903397,-18.71142387,-16.46456528, 
328,85347397,-19.5801754,36.46107101,-126.3769836,-7.055746078,-2.453567982,5.069880009,-53.81412888,-15.80392742,-19.46635818, 
329,85364064,-20.68887329,36.19595337,-126.7674103,-7.160665512,-3.131604433,4.643308163,-52.13637543,-9.740068436,-23.5592804, 
330,85380731,-21.64192772,36.06438446,-127.3469772,-7.19959116,-4.252638817,4.31859684,-36.1114006,1.390396118,-29.4647541, 
331,85397398,-22.29166222,36.17800903,-128.1394806,-7.058130741,-3.866513014,3.759153128,-10.28978539,19.20662117,-33.52213287, 
332,85414065,-22.72452164,36.53884506,-129.0773315,-6.896658897,-3.014882565,3.536785364,8.148906708,35.75632477,-34.05241013, 
333,85430732,-23.01806068,37.14029312,-130.1605377,-6.752267838,-3.14265132,3.502928495,22.20181274,51.75760269,-34.41156387, 
334,85447399,-23.16638565,38.00482178,-131.3811493,-6.81870842,-3.012965679,3.317424297,36.69557953,68.66348267,-33.5757103, 
335,85464066,-23.17163849,39.13493347,-132.6838531,-7.00723505,-2.893549681,3.549144745,49.44906235,84.44620514,-30.02466774, 
336,85480733,-23.13607407,40.48931503,-134.0960999,-7.134826183,-2.843676567,3.764756441,57.51049423,98.25998688,-28.3977108, 
337,85497400,-23.18652534,42.08063507,-135.6243286,-7.263095379,-2.638763189,3.914302111,58.68815613,112.7284317,-26.2713604, 
338,85514067,-23.45799065,43.86229324,-137.2581482,-7.499239445,-2.433217525,4.151779175,51.83066177,124.3083344,-23.9812603, 
339,85530734,-24.03146744,45.81835556,-139.0045624,-7.760184288,-2.345944166,4.237738609,40.85464096,135.0087585,-21.15244865, 
340,85547401,-24.91244888,47.90789413,-140.8597107,-8.086638451,-2.411381245,4.579990864,29.81163406,143.2251587,-17.69627762, 
341,85564068,-26.09098244,50.0644455,-142.8054657,-8.416326523,-2.32029438,5.127750397,18.88357162,147.306015,-13.75938225, 
342,85580735,-27.51854324,52.20572662,-144.7849274,-8.889762878,-2.109619141,6.328561783,8.36534214,145.7903595,-8.861798286, 
343,85597402,-29.05703545,54.25007248,-146.6211548,-9.259371758,-1.858320713,7.516727448,-2.522140026,136.8065796,-0.190410942, 
344,85614069,-30.6898632,56.14088058,-148.2024841,-9.279762268,-1.722096205,7.925107956,-18.57525063,122.9738312,9.330872536, 
345,85630736,-32.52311325,57.87466049,-149.5313721,-9.062020302,-1.658040047,7.475419044,-41.70802307,109.0947113,17.33617973, 
346,85647403,-34.6808548,59.50296402,-150.6797638,-8.791658401,-1.651257753,6.615312099,-69.26806641,99.06447601,24.02751923, 
347,85664070,-37.13025284,61.12762451,-151.6941833,-8.736327171,-1.542756915,5.457587719,-92.83763885,94.62480927,32.50710678, 
348,85680737,-39.6759758,62.86920929,-152.587738,-9.163860321,-1.565603375,4.31739378,-104.2222977,95.60350037,44.88806915, 
349,85697404,-41.97242737,64.71562195,-153.3135223,-10.01938725,-2.172953844,4.057833672,-97.58451843,94.53356171,57.50860977, 
350,85714071,-43.61828613,66.51783752,-153.8404083,-10.52878094,-3.37754631,4.267221928,-68.88108063,86.37361908,63.47385788, 
351,85730738,-44.56337357,68.14580536,-154.3466644,-10.47397232,-4.066408634,4.260617256,-27.64413452,76.51747894,59.1627388, 
352,85747405,-45.004673,69.48995972,-154.8191833,-10.52375507,-3.237208605,5.088398457,0.944848061,62.74377823,49.2181282, 
353,85764072,-44.63854599,70.45821381,-154.3166656,-10.3746624,-0.53269136,5.617582321,-5.443230629,32.32321167,48.00458527, 
354,85780739,-43.97920609,71.13227081,-153.1015015,-9.933198929,-0.952633202,5.373897076,-28.47734451,10.71520901,45.09841156, 
355,85797406,-43.52436829,71.45580292,-151.9768677,-9.375571251,-2.970632553,4.92848444,-35.9002037,-2.274713039,28.71159172, 
356,85814073,-43.03196716,71.51624298,-151.0309143,-9.504558563,-3.008850098,5.576897144,-23.61267281,-10.90444374,15.31799221, 
357,85830740,-42.25471115,71.29055023,-149.8903046,-9.624010086,-2.620584249,6.65963459,-17.63261032,-25.76924133,6.65353775, 
358,85847407,-41.41879654,70.76163483,-148.4930725,-9.631115913,-2.792700529,7.65831852,-28.61717606,-42.64014053,-1.024306178, 
359,85864074,-40.55305862,69.92717743,-146.8132782,-9.568068504,-2.981159925,8.309087753,-42.56135178,-60.60032272,-7.343707561, 
360,85880741,-39.25748825,68.93468475,-144.6988831,-9.231327057,-2.913153172,8.084918022,-40.74118423,-74.5806427,-4.022596359, 
361,85897408,-37.74328995,67.76773071,-142.3776855,-8.949892998,-3.691003561,7.465092182,-38.39768982,-86.84272766,-3.302727938, 
362,85914075,-36.34767914,66.27355194,-140.1200104,-8.887364388,-4.303972721,7.079877377,-40.8478241,-103.2681274,-11.61412239, 
363,85930742,-35.13233566,64.39459991,-138.0359497,-8.535871506,-4.73538065,7.530851364,-40.64121246,-121.6647644,-23.18216705, 
364,85947409,-34.07130432,62.15940094,-136.1560516,-8.255163193,-5.000686646,8.483739853,-37.059021,-138.690979,-33.9475708, 
365,85964076,-33.17348862,59.70804596,-134.479126,-7.948904991,-4.686405659,8.280171394,-34.09205246,-148.8411407,-40.11717987, 
366,85980743,-32.42225647,57.16836929,-133.0263062,-7.658148289,-5.186322212,7.438743114,-29.25059891,-151.9381866,-43.42844772, 
367,85997410,-31.48471451,54.55527496,-131.7832947,-7.7584548,-5.975807667,7.775011539,-5.530435085,-154.1918182,-46.56632614, 
368,86014077,-30.11489868,51.86330795,-130.7154083,-7.777335644,-5.630129814,8.070189476,30.84210205,-157.282547,-48.70738602, 
369,86030744,-28.640728,49.14063644,-129.8725433,-7.661295414,-4.318007469,7.345410347,49.41210175,-156.9224548,-50.97040939, 
370,86047411,-27.3392868,46.40516281,-129.1968994,-7.504840851,-3.606476307,6.628781796,48.07811356,-156.4494934,-51.80052567, 
371,86064078,-26.29509735,43.73259354,-128.6998901,-7.082623005,-3.826778173,5.510924816,41.57204056,-151.329483,-52.38074875, 
372,86080745,-25.3830452,41.22012711,-128.4419861,-6.840610981,-4.190564156,5.210934639,44.35805893,-139.4004364,-54.27940369, 
373,86097412,-24.29559708,38.92635345,-128.3079376,-6.611833096,-4.088986397,5.026669979,60.2152977,-126.2756271,-51.08898163, 
374,86114079,-22.9697628,36.89598846,-128.2776642,-6.464585304,-3.558364153,4.818796635,78.64733124,-111.0303574,-46.41833496, 
375,86130746,-21.59057999,35.11050415,-128.3002167,-6.301467419,-2.530925751,4.436511517,83.81658936,-97.63531494,-40.57542801, 
376,86147413,-20.354702,33.61389923,-128.3457642,-5.943750381,-1.95199275,3.809912205,76.00218201,-82.05084991,-33.27028656, 
377,86164080,-19.22691536,32.44890594,-128.3986053,-5.810200214,-1.796215773,3.766392946,69.72961426,-63.99021149,-25.27683258, 
378,86180747,-18.06632233,31.57676697,-128.4193268,-5.922772884,-1.818802118,4.339309692,70.64980316,-48.47871399,-16.91654587, 
379,86197414,-16.95496559,30.9717598,-128.446106,-6.040662766,-1.638088465,4.475837708,67.88833618,-33.55086136,-11.48932076, 
380,86214081,-16.03348732,30.6108799,-128.4712982,-6.296865463,-1.28047061,4.526986122,56.45119476,-19.85742569,-6.725461483, 
381,86230748,-15.28014278,30.44995308,-128.4591675,-6.478200436,-1.609657049,4.542086124,45.21968842,-9.065675735,-1.404988766, 
382,86247415,-14.61130619,30.45476532,-128.4515839,-6.667588711,-1.794096828,4.831387043,40.304142,0.439990252,0.987977028, 
383,86264082,-14.02056217,30.53683281,-128.4362946,-6.90887785,-1.506529212,5.693693638,35.40570831,4.697954178,2.458574295, 
384,86280749,-13.59745407,30.65821648,-128.4225464,-7.029450893,-1.521235824,6.041508675,25.39802551,6.895250797,2.850047588, 
385,86297416,-13.32533169,30.80783463,-128.4195709,-6.993730545,-1.612472296,6.400657177,16.67212105,8.562232971,2.608848572, 
386,86314083,-13.16553211,30.950737,-128.438385,-6.753545761,-1.843215942,6.666646957,10.61018085,8.325219154,1.346895814, 
387,86330750,-12.98855114,31.11032295,-128.4472504,-6.539458752,-1.961935759,6.924306393,11.34585857,9.093360901,2.01860261, 
388,86347417,-12.75716114,31.26728439,-128.4343414,-6.45224762,-1.731503844,7.307423115,13.94975281,8.620463371,3.016103268, 
389,86364084,-12.53434086,31.41407585,-128.4109497,-6.277081966,-1.541370392,7.49674511,13.10856533,7.854346275,3.349017143, 
390,86380751,-12.38085651,31.5505867,-128.4232635,-6.077569485,-1.711493015,7.560246468,10.06141567,7.60688591,1.381857038, 
391,86397418,-12.24191856,31.71673584,-128.4646301,-5.962937355,-1.957042933,7.467075348,10.10517693,9.623440742,0.281342924, 
392,86414085,-12.08830929,31.90810966,-128.5148926,-5.880477428,-1.585250974,7.602122784,11.28532314,11.16236877,0.128601477, 
393,86430752,-11.95479107,32.11180878,-128.5627441,-5.573209286,-1.385045886,7.722392559,10.01011658,11.83138657,0.369296998, 
394,86447419,-11.8328867,32.30894089,-128.604126,-5.551824093,-1.374560833,8.196270943,9.1068964,11.36619377,0.580358565, 
395,86464086,-11.75566769,32.47060776,-128.6346588,-5.729018211,-1.364711404,8.450212479,6.069457054,9.169593811,0.662959397, 
396,86480753,-11.69697189,32.6181488,-128.6255798,-5.766066551,-1.367278337,8.622982979,3.669852495,7.935853481,2.440557957, 
397,86497420,-11.57611847,32.73666,-128.5727081,-5.670408249,-1.53840065,8.701530457,5.962970257,5.791686058,4.234958649, 
398,86514087,-11.460186,32.85928726,-128.4931946,-5.647556305,-1.176551819,7.852772713,4.7867589,5.785488129,5.583634377, 
399,86530754,-11.5666151,32.93322754,-128.408844,-6.285076141,-0.98823601,8.122868538,-8.735219955,2.8692379,5.224467278, 
400,86547421,-11.95512486,32.86436462,-128.3970947,-6.872825623,-1.958508849,8.4215765,-23.31653595,-4.813910007,-0.109782651, 
401,86564088,-12.33073902,32.79177856,-128.4477844,-6.681527615,-2.738560915,7.557323456,-20.50257874,-4.40191412,-3.276708126, 
402,86580755,-12.58219242,32.73077393,-128.4982147,-6.418333054,-2.019637346,7.213792801,-13.02726173,-3.750079632,-3.135976315, 
403,86597422,-12.89084625,32.54794693,-128.5505066,-6.467324257,-1.720638037,7.605885983,-16.3891716,-10.88278008,-4.867872715, 
404,86614089,-13.41361523,32.25505447,-128.663208,-6.680961609,-2.29819417,7.510460377,-27.3024826,-16.61427307,-9.451397896, 
