sep=,
DeviceTag:,Left_Wrist,,,,,,,,,,,,,,,,,
FirmwareVersion:,1.6.0,,,,,,,,,,,,,,,,,
AppVersion:,2020.4,,,,,,,,,,,,,,,,,
StartTime:,2021-05-31 22:25:39.701 +0100,,,,,,,,,,,,,,,,,
© Xsens Technologies B. V. 2005-2021,,,,,,,,,,,,,,,,,,,

PacketCounter,SampleTimeFine,Euler_X,Euler_Y,Euler_Z,Acc_X,Acc_Y,Acc_Z,Gyr_X,Gyr_Y,Gyr_Z,
0, 79880621, -44.93981170654297, 38.03062438964844, -160.40753173828125, 0.0, 0.0, 0.0, 0.0, 0.0, 0.0, 
1, 79897288, -44.006099700927734, 39.27914810180664, -159.6317138671875, -4.997345924377441, -3.298741340637207, 6.276892185211182, -58.39060592651367, 93.73600006103516, 25.88157844543457, 
2, 79913955, -42.7714729309082, 40.480716705322266, -158.3697052001953, -4.860229015350342, -2.8565030097961426, 5.838315010070801, -74.59944152832031, 98.11740112304688, 33.77419662475586, 
3, 79930622, -42.201080322265625, 41.91030502319336, -157.38499450683594, -4.415419578552246, -2.5752007961273193, 5.3324503898620605, -96.42601776123047, 101.99723052978516, 44.85261535644531, 
4, 79947289, -42.532142639160156, 43.498165130615234, -156.5319061279297, -4.558330059051514, -2.9558279514312744, 5.380980014801025, -124.85871124267578, 103.75689697265625, 57.781734466552734, 
5, 79963956, -43.704803466796875, 45.18115234375, -155.8287353515625, -4.934263706207275, -3.1407856941223145, 5.319851398468018, -151.9720916748047, 104.85895538330078, 69.7615737915039, 
6, 79980623, -45.43295669555664, 47.09920883178711, -155.189453125, -5.3714094161987305, -3.2196950912475586, 4.606625080108643, -171.0354461669922, 108.22300720214844, 85.93741607666016, 
7, 79997290, -47.53438949584961, 49.30976867675781, -154.51077270507812, -6.5238189697265625, -3.7981457710266113, 4.636417865753174, -185.21038818359375, 106.33822631835938, 104.66522216796875, 
8, 80013957, -49.956146240234375, 51.621768951416016, -153.7609100341797, -7.641298770904541, -4.723728656768799, 4.875648021697998, -200.9130401611328, 96.56365966796875, 115.0840835571289, 
9, 80030624, -52.525787353515625, 53.896697998046875, -152.91009521484375, -8.539127349853516, -5.4729814529418945, 5.490063190460205, -209.94363403320312, 83.24104309082031, 121.22586059570312, 
10, 80047291, -54.792457580566406, 56.11875915527344, -151.69219970703125, -8.995962142944336, -5.829439163208008, 5.423314094543457, -208.084228515625, 66.60282897949219, 131.7685089111328, 
11, 80063958, -56.52275085449219, 58.32474899291992, -149.95645141601562, -9.162506103515625, -5.572540283203125, 4.731411933898926, -201.48085021972656, 49.42781448364258, 144.4828338623047, 
12, 80080625, -57.63787841796875, 60.602088928222656, -147.70559692382812, -9.291511535644531, -5.494677543640137, 3.542203426361084, -191.2963409423828, 36.56208038330078, 157.59371948242188, 
13, 80097292, -58.217342376708984, 62.957767486572266, -145.08984375, -9.721270561218262, -5.7588396072387695, 2.3158299922943115, -178.39276123046875, 28.473764419555664, 166.53851318359375, 
14, 80113959, -58.201908111572266, 65.34194946289062, -142.24632263183594, -10.206392288208008, -6.392419338226318, 1.7864675521850586, -154.86004638671875, 23.27332878112793, 170.03854370117188, 
15, 80130626, -57.424556732177734, 67.54531860351562, -139.2794189453125, -10.471834182739258, -8.070571899414062, 2.2042078971862793, -116.19530487060547, 16.753337860107422, 161.77684020996094, 
16, 80147293, -55.905418395996094, 69.38140106201172, -136.4972381591797, -10.325372695922852, -9.355493545532227, 2.9743618965148926, -61.777462005615234, 13.580748558044434, 143.11322021484375, 
17, 80163960, -53.736358642578125, 70.78982543945312, -134.1577606201172, -10.025504112243652, -9.474924087524414, 3.4909284114837646, 1.8600455522537231, 13.902902603149414, 120.51681518554688, 
18, 80180627, -51.20659637451172, 71.76957702636719, -132.35543823242188, -9.618292808532715, -8.240716934204102, 3.325554132461548, 53.830623626708984, 13.982101440429688, 96.91012573242188, 
19, 80197294, -48.822425842285156, 72.38065338134766, -131.07431030273438, -9.400822639465332, -6.324151992797852, 3.000908374786377, 74.7181167602539, 12.418120384216309, 74.82382202148438, 
20, 80213961, -46.93746566772461, 72.66333770751953, -130.1449737548828, -9.347088813781738, -4.760345935821533, 2.814810037612915, 64.65227508544922, 6.599575042724609, 54.80960464477539, 
21, 80230628, -45.79567337036133, 72.63754272460938, -129.48182678222656, -9.375198364257812, -3.681887626647949, 2.8325235843658447, 34.97468948364258, -1.9243439435958862, 35.88095474243164, 
22, 80247295, -45.32175827026367, 72.36365509033203, -128.84283447265625, -9.593851089477539, -2.926901340484619, 2.8041586875915527, -4.092182636260986, -12.266866683959961, 22.324338912963867, 
23, 80263962, -45.290225982666016, 71.93904876708984, -128.01446533203125, -9.613604545593262, -2.55637264251709, 2.6874032020568848, -41.80644989013672, -21.892982482910156, 15.563231468200684, 
24, 80280629, -45.38138961791992, 71.43335723876953, -126.81339263916016, -9.589184761047363, -2.4130022525787354, 2.6669468879699707, -70.6255874633789, -31.43272590637207, 14.496016502380371, 
25, 80297296, -45.440216064453125, 70.88959503173828, -125.2265853881836, -9.207694053649902, -2.693976402282715, 2.4407575130462646, -90.66194152832031, -39.673885345458984, 16.049819946289062, 
26, 80313963, -45.47863006591797, 70.36048126220703, -123.42169952392578, -8.6922025680542, -2.9805374145507812, 2.041245460510254, -101.62476348876953, -43.67880630493164, 18.432279586791992, 
27, 80330630, -45.466651916503906, 69.9330062866211, -121.5691146850586, -8.55239486694336, -3.3674182891845703, 1.8658394813537598, -100.99591827392578, -41.70697784423828, 22.7039852142334, 
28, 80347297, -45.337242126464844, 69.5796890258789, -119.83330535888672, -8.42092227935791, -3.8748464584350586, 1.9302773475646973, -87.06192016601562, -38.28304672241211, 23.751708984375, 
29, 80363964, -45.086761474609375, 69.26599884033203, -118.44477081298828, -8.269365310668945, -3.9222655296325684, 2.267742872238159, -59.99114990234375, -32.452728271484375, 20.222082138061523, 
30, 80380631, -44.7568244934082, 68.9998550415039, -117.4277114868164, -8.327876091003418, -3.268855094909668, 2.441843032836914, -34.24216842651367, -25.36894989013672, 16.54293441772461, 
31, 80397298, -44.40629196166992, 68.7983627319336, -116.65027618408203, -8.558791160583496, -2.694406032562256, 2.5649476051330566, -19.637285232543945, -19.23981285095215, 15.092534065246582, 
32, 80413965, -44.01517105102539, 68.64311981201172, -115.9622802734375, -8.727409362792969, -2.5351037979125977, 2.684579849243164, -12.364935874938965, -16.032337188720703, 14.846858978271484, 
33, 80430632, -43.62207794189453, 68.52188873291016, -115.37255096435547, -8.80431079864502, -2.5779380798339844, 2.5861215591430664, -6.951930522918701, -13.125651359558105, 13.922750473022461, 
34, 80447299, -43.18199157714844, 68.42449951171875, -114.83838653564453, -8.938774108886719, -2.376307487487793, 2.507587194442749, -1.193060040473938, -11.32485294342041, 13.325878143310547, 
35, 80463966, -42.674686431884766, 68.36293029785156, -114.27692413330078, -8.903966903686523, -2.0741255283355713, 2.437521457672119, 1.152726411819458, -10.261515617370605, 14.539114952087402, 
36, 80480633, -42.1176872253418, 68.3382339477539, -113.62124633789062, -8.916130065917969, -1.885918140411377, 2.4367475509643555, -1.2899787425994873, -10.112438201904297, 16.87417984008789, 
37, 80497300, -41.5438232421875, 68.34414672851562, -112.85924530029297, -8.958849906921387, -1.7851653099060059, 2.408480167388916, -6.380884647369385, -10.35278034210205, 19.18143653869629, 
38, 80513967, -40.9294548034668, 68.36917877197266, -111.97864532470703, -8.99737548828125, -1.8481580018997192, 2.480581045150757, -10.727873802185059, -11.218025207519531, 21.30597686767578, 
39, 80530634, -40.32990264892578, 68.41197967529297, -111.05331420898438, -8.950450897216797, -2.1013169288635254, 2.36468505859375, -14.259930610656738, -10.984031677246094, 22.247268676757812, 
40, 80547301, -39.786842346191406, 68.46977996826172, -110.1680908203125, -9.128700256347656, -2.3353614807128906, 2.352118730545044, -15.520679473876953, -9.667110443115234, 21.777233123779297, 
41, 80563968, -39.25667953491211, 68.52790832519531, -109.33698272705078, -9.287614822387695, -2.4835188388824463, 2.4667317867279053, -13.353131294250488, -8.842172622680664, 20.589893341064453, 
42, 80580635, -38.74227523803711, 68.58470153808594, -108.60395050048828, -9.216224670410156, -2.499290943145752, 2.4799821376800537, -8.889139175415039, -7.481181621551514, 18.64971351623535, 
43, 80597302, -38.24824142456055, 68.65058135986328, -107.96961212158203, -9.152861595153809, -2.3407297134399414, 2.4990501403808594, -4.658629417419434, -5.638558864593506, 17.107919692993164, 
44, 80613969, -37.82435989379883, 68.71842193603516, -107.42958068847656, -9.145468711853027, -2.2984812259674072, 2.505547523498535, -3.6633365154266357, -4.209924697875977, 15.349021911621094, 
45, 80630636, -37.494728088378906, 68.79547119140625, -106.97726440429688, -9.156106948852539, -2.1583139896392822, 2.4654948711395264, -4.476334571838379, -2.563589572906494, 13.965710639953613, 
46, 80647303, -37.179813385009766, 68.88957214355469, -106.54940795898438, -9.243913650512695, -2.1210594177246094, 2.4728050231933594, -4.059154987335205, -1.4055490493774414, 13.940574645996094, 
47, 80663970, -36.87511444091797, 68.98871612548828, -106.1612548828125, -9.239386558532715, -2.1436190605163574, 2.528414487838745, -2.5126781463623047, -0.6260196566581726, 13.21020793914795, 
48, 80680637, -36.52426528930664, 69.08614349365234, -105.76079559326172, -9.23221492767334, -1.9704563617706299, 2.5848138332366943, -0.49510014057159424, -0.8207657933235168, 13.165255546569824, 
49, 80697304, -36.15340805053711, 69.18135070800781, -105.31720733642578, -9.079163551330566, -1.807536005973816, 2.457594871520996, -1.7778488397598267, -1.409717321395874, 13.618215560913086, 
50, 80713971, -35.80357360839844, 69.28296661376953, -104.85302734375, -8.933155059814453, -1.8158842325210571, 2.4255928993225098, -4.263486862182617, -1.291617512702942, 13.98902702331543, 
51, 80730638, -35.478485107421875, 69.38726043701172, -104.3873291015625, -9.07663631439209, -1.8908997774124146, 2.4991486072540283, -5.892853260040283, -1.1200121641159058, 13.911959648132324, 
52, 80747305, -35.13385009765625, 69.48355102539062, -103.90692138671875, -9.214189529418945, -2.1047592163085938, 2.5898566246032715, -5.601686954498291, -1.6142224073410034, 13.729774475097656, 
53, 80763972, -34.777828216552734, 69.5652847290039, -103.451416015625, -9.111358642578125, -2.283701181411743, 2.633348226547241, -3.559885263442993, -1.9466944932937622, 12.687161445617676, 
54, 80780639, -34.400875091552734, 69.649169921875, -103.04696655273438, -9.02013111114502, -2.220526695251465, 2.648327350616455, 0.5368936657905579, -1.1391572952270508, 11.82413387298584, 
55, 80797306, -34.040531158447266, 69.72928619384766, -102.71688079833984, -9.113195419311523, -2.1082372665405273, 2.7302513122558594, 3.6969642639160156, -0.358712375164032, 10.35694694519043, 
56, 80813973, -33.70976638793945, 69.7927474975586, -102.43106079101562, -9.272150993347168, -1.9933606386184692, 2.834963321685791, 4.3848066329956055, -0.5898158550262451, 8.96642017364502, 
57, 80830640, -33.37396240234375, 69.834228515625, -102.121337890625, -9.40020751953125, -1.9002948999404907, 2.8684349060058594, 3.3086557388305664, -1.883750557899475, 8.574398040771484, 
58, 80847307, -33.06353759765625, 69.83903503417969, -101.79893493652344, -9.289510726928711, -1.9383387565612793, 2.8804514408111572, 1.0421744585037231, -3.8019113540649414, 7.513864517211914, 
59, 80863974, -32.808128356933594, 69.81507873535156, -101.50553131103516, -9.083399772644043, -1.9038933515548706, 2.815817356109619, -0.6507611870765686, -4.865331172943115, 6.036017894744873, 
60, 80880641, -32.617191314697266, 69.7684555053711, -101.27448272705078, -9.00489616394043, -1.9511698484420776, 2.8399288654327393, -1.0211975574493408, -5.277951240539551, 4.186305999755859, 
61, 80897308, -32.489933013916016, 69.7078628540039, -101.11573028564453, -9.076743125915527, -1.9166862964630127, 2.835827112197876, -0.7848755717277527, -5.1439642906188965, 2.457301616668701, 
62, 80913975, -32.372711181640625, 69.64643096923828, -100.97872161865234, -9.276265144348145, -1.763977289199829, 2.858004331588745, -0.17380139231681824, -4.9292216300964355, 2.021610736846924, 
63, 80930642, -32.2645378112793, 69.56681060791016, -100.82478332519531, -9.352808952331543, -1.6481959819793701, 2.8620851039886475, -1.6866666078567505, -6.030055999755859, 1.6917316913604736, 
64, 80947309, -32.18815994262695, 69.4765625, -100.66141510009766, -9.216815948486328, -1.5990265607833862, 2.8540265560150146, -4.1431427001953125, -6.675137996673584, 1.4653284549713135, 
65, 80963976, -32.147666931152344, 69.38322448730469, -100.5130386352539, -9.123998641967773, -1.6370086669921875, 2.8683505058288574, -5.469568252563477, -6.666257858276367, 1.0398823022842407, 
66, 80980643, -32.12022018432617, 69.29861450195312, -100.38855743408203, -9.172780990600586, -1.6135129928588867, 2.883185625076294, -4.928293704986572, -5.949126243591309, 0.8440346717834473, 
67, 80997310, -32.104740142822266, 69.21818542480469, -100.2892837524414, -9.30676555633545, -1.5921915769577026, 2.9175078868865967, -4.245991230010986, -5.451850891113281, 0.4665098786354065, 
68, 81013977, -32.120079040527344, 69.1319580078125, -100.22731018066406, -9.312421798706055, -1.5321152210235596, 2.9680886268615723, -4.021034240722656, -5.31826639175415, -0.4489074647426605, 
69, 81030644, -32.132606506347656, 69.0585708618164, -100.1644058227539, -9.211617469787598, -1.3385627269744873, 2.9684393405914307, -3.926126003265381, -4.672582626342773, -0.09056010097265244, 
70, 81047311, -32.15162658691406, 69.00045776367188, -100.08855438232422, -9.268353462219238, -1.2169955968856812, 3.0584523677825928, -5.066749572753906, -4.037502765655518, 0.546549379825592, 
71, 81063978, -32.185646057128906, 68.9462661743164, -100.00676727294922, -9.463627815246582, -1.1630640029907227, 3.150273323059082, -6.330750942230225, -3.8908331394195557, 0.6863821744918823, 
72, 81080645, -32.21267318725586, 68.89788055419922, -99.90229034423828, -9.461109161376953, -1.0390969514846802, 3.147312879562378, -7.217091083526611, -3.842283248901367, 1.1857274770736694, 
73, 81097312, -32.23269271850586, 68.86775970458984, -99.77201843261719, -9.29456901550293, -0.9034900665283203, 3.061436176300049, -8.273703575134277, -3.199878454208374, 2.1295042037963867, 
74, 81113979, -32.25687026977539, 68.87702178955078, -99.63543701171875, -9.314960479736328, -0.8021690845489502, 3.0728585720062256, -8.915034294128418, -1.2664268016815186, 3.3893938064575195, 
75, 81130646, -32.24037170410156, 68.92552947998047, -99.47359466552734, -9.468484878540039, -0.7501277923583984, 3.1537952423095703, -7.930482387542725, 0.44496962428092957, 4.98140287399292, 
76, 81147313, -32.14847946166992, 69.01539611816406, -99.26681518554688, -9.502909660339355, -0.7325446605682373, 3.2046961784362793, -5.966986179351807, 2.052576780319214, 6.989080429077148, 
77, 81163980, -32.006263732910156, 69.15808868408203, -99.03875732421875, -9.482453346252441, -0.7935957312583923, 3.2326841354370117, -4.1904120445251465, 4.536395072937012, 8.90957260131836, 
78, 81180647, -31.819669723510742, 69.36200714111328, -98.81277465820312, -9.522186279296875, -0.8911724090576172, 3.2183516025543213, -1.46278715133667, 7.748116493225098, 10.663817405700684, 
79, 81197314, -31.59503173828125, 69.61553955078125, -98.61305236816406, -9.674236297607422, -1.048790693283081, 3.263225793838501, 2.243302822113037, 10.653661727905273, 11.597798347473145, 
80, 81213981, -31.303388595581055, 69.90666961669922, -98.41976165771484, -9.756446838378906, -1.1056208610534668, 3.3329648971557617, 6.582587242126465, 12.746125221252441, 12.492149353027344, 
81, 81230648, -30.960981369018555, 70.21961212158203, -98.22415161132812, -9.658027648925781, -1.0838295221328735, 3.3221564292907715, 9.454277038574219, 13.96977710723877, 13.02815055847168, 
82, 81247315, -30.617115020751953, 70.54920959472656, -98.03752136230469, -9.505702018737793, -1.0520893335342407, 3.2898831367492676, 10.00791072845459, 15.06026840209961, 13.18844985961914, 
83, 81263982, -30.33460235595703, 70.89349365234375, -97.89374542236328, -9.288963317871094, -1.1224405765533447, 3.0868823528289795, 8.71157455444336, 16.390979766845703, 12.718202590942383, 
84, 81280649, -30.19796371459961, 71.24174499511719, -97.8722915649414, -9.232817649841309, -1.257930040359497, 2.894299268722534, 6.873602390289307, 17.89344596862793, 10.644144058227539, 
85, 81297316, -30.18461036682129, 71.60050201416016, -97.96260070800781, -9.253806114196777, -1.2892100811004639, 2.738945484161377, 5.82882022857666, 19.545366287231445, 9.06737232208252, 
86, 81313983, -30.168935775756836, 71.94854736328125, -98.07596588134766, -9.261636734008789, -1.2205538749694824, 2.8022515773773193, 7.290475845336914, 19.19658660888672, 8.380874633789062, 
87, 81330650, -30.189617156982422, 72.30130767822266, -98.19894409179688, -8.996862411499023, -1.1176881790161133, 2.5393943786621094, 5.6676764488220215, 19.52402687072754, 8.394523620605469, 
88, 81347317, -30.345075607299805, 72.67794036865234, -98.36334991455078, -8.870116233825684, -1.046140432357788, 2.2664854526519775, -0.03258581459522247, 21.10173797607422, 8.516648292541504, 
89, 81363984, -30.594343185424805, 73.07289123535156, -98.5167465209961, -8.979342460632324, -1.1152749061584473, 2.272657632827759, -6.272237300872803, 21.8747501373291, 9.35499382019043, 
90, 81380651, -30.88785743713379, 73.48722076416016, -98.65974426269531, -8.83983325958252, -1.224408745765686, 2.274705648422241, -9.5011625289917, 22.697145462036133, 10.249650001525879, 
91, 81397318, -31.19999122619629, 73.9197769165039, -98.85745239257812, -8.597423553466797, -1.4583083391189575, 2.3803060054779053, -7.447635173797607, 24.024810791015625, 10.19888687133789, 
92, 81413985, -31.596899032592773, 74.36589813232422, -99.1609115600586, -8.303439140319824, -1.435078740119934, 2.2043964862823486, -6.394771099090576, 25.53137969970703, 9.389461517333984, 
93, 81430652, -32.089149475097656, 74.83732604980469, -99.53426361083984, -8.172440528869629, -1.3179091215133667, 2.258462905883789, -8.02142333984375, 27.273212432861328, 9.585858345031738, 
94, 81447319, -32.68838882446289, 75.32090759277344, -99.96186828613281, -7.978294372558594, -1.3560961484909058, 2.3286452293395996, -11.246013641357422, 28.179161071777344, 9.704731941223145, 
95, 81463986, -33.46068572998047, 75.80941772460938, -100.5057601928711, -7.767855167388916, -1.539267897605896, 2.5135810375213623, -14.811402320861816, 29.184520721435547, 8.944925308227539, 
96, 81480653, -34.47903060913086, 76.28833770751953, -101.23849487304688, -7.550628185272217, -1.9774484634399414, 2.680757999420166, -18.50693130493164, 30.008808135986328, 7.079113006591797, 
97, 81497320, -35.637210845947266, 76.80248260498047, -102.173583984375, -7.449908256530762, -2.60650372505188, 3.087252140045166, -14.990013122558594, 33.0950813293457, 6.929164409637451, 
98, 81513987, -36.63139724731445, 77.33715057373047, -103.24543762207031, -7.432623863220215, -3.6842525005340576, 3.920926570892334, 2.975888967514038, 34.86764907836914, 7.320565223693848, 
99, 81530654, -37.39862060546875, 77.85418701171875, -104.60745239257812, -7.515680313110352, -4.733180046081543, 5.1770243644714355, 33.73872375488281, 36.01119613647461, 4.892836570739746, 
100, 81547321, -37.87199783325195, 78.345703125, -106.32366180419922, -7.9337615966796875, -5.451720237731934, 6.343290328979492, 72.31816101074219, 37.30314254760742, 1.7129533290863037, 
101, 81563988, -37.774879455566406, 78.76351928710938, -108.16603088378906, -8.852973937988281, -5.823042392730713, 7.846863269805908, 114.13232421875, 34.63895797729492, -1.1337966918945312, 
102, 81580655, -36.792503356933594, 79.05963134765625, -109.75691986083984, -10.196454048156738, -6.049210071563721, 9.387943267822266, 152.5616455078125, 27.166364669799805, -2.744025230407715, 
103, 81597322, -34.73392868041992, 79.0854263305664, -110.74928283691406, -11.615550994873047, -6.265273094177246, 10.818108558654785, 181.8946533203125, 10.407119750976562, -6.910929203033447, 
104, 81613989, -31.318395614624023, 78.7359619140625, -110.68571472167969, -12.198217391967773, -6.314364433288574, 10.971237182617188, 201.08323669433594, -14.693048477172852, -9.287774085998535, 
105, 81630656, -27.31608772277832, 77.90689086914062, -110.41236877441406, -12.293587684631348, -7.428616523742676, 11.402220726013184, 223.95106506347656, -40.98805618286133, -19.81297492980957, 
106, 81647323, -23.620702743530273, 76.5075912475586, -110.81675720214844, -13.321566581726074, -7.759729862213135, 10.90906047821045, 245.24554443359375, -68.71934509277344, -39.15604019165039, 
107, 81663990, -20.264991760253906, 74.51017761230469, -111.81147003173828, -15.036468505859375, -6.886178493499756, 10.215123176574707, 258.98797607421875, -100.15034484863281, -56.745426177978516, 
108, 81680657, -17.012208938598633, 71.915283203125, -113.17649841308594, -16.156902313232422, -5.9373779296875, 10.114639282226562, 273.43548583984375, -134.00869750976562, -70.32732391357422, 
109, 81697324, -13.738724708557129, 68.8261947631836, -114.60852813720703, -17.749740600585938, -4.269584655761719, 9.415508270263672, 277.16900634765625, -164.6698455810547, -75.2809829711914, 
110, 81713991, -10.735145568847656, 65.30117797851562, -116.13339233398438, -19.607891082763672, -4.997152328491211, 9.182486534118652, 264.26690673828125, -192.52423095703125, -78.26995086669922, 
111, 81730658, -8.236924171447754, 61.37506866455078, -118.29296112060547, -21.211557388305664, -6.825962066650391, 9.575586318969727, 265.4749450683594, -216.09674072265625, -94.9949722290039, 
112, 81747325, -6.266912937164307, 57.090599060058594, -121.2807846069336, -22.066566467285156, -7.48432731628418, 8.5347900390625, 272.080078125, -236.84344482421875, -122.36128234863281, 
113, 81763992, -5.243052005767822, 52.48138427734375, -125.05854034423828, -22.880048751831055, -5.624473571777344, 6.483799934387207, 246.5532989501953, -255.74282836914062, -156.73977661132812, 
114, 81780659, -5.321437358856201, 47.52913284301758, -129.210205078125, -23.481983184814453, -4.346834182739258, 6.514984130859375, 186.12486267089844, -275.4130554199219, -185.7843780517578, 
115, 81797326, -6.318605422973633, 42.0653190612793, -133.49136352539062, -25.11836051940918, -4.171328067779541, 8.32299518585205, 121.19508361816406, -302.7032470703125, -213.6204833984375, 
116, 81813993, -7.895386219024658, 35.91322708129883, -137.3944549560547, -25.750619888305664, -3.3950507640838623, 8.876919746398926, 52.82827377319336, -339.7556457519531, -225.3383026123047, 
117, 81830660, -10.019587516784668, 29.049224853515625, -140.59898376464844, -23.21751594543457, -2.5277974605560303, 8.456101417541504, -24.030065536499023, -378.6835632324219, -223.44107055664062, 
118, 81847327, -12.64574146270752, 21.52898597717285, -143.1483917236328, -20.19575309753418, -3.5926663875579834, 8.297412872314453, -91.98050689697266, -413.513427734375, -223.50819396972656, 
119, 81863994, -15.391911506652832, 13.433465957641602, -145.15538024902344, -16.919645309448242, -6.037729263305664, 7.161777973175049, -128.21405029296875, -442.7874450683594, -228.525390625, 
120, 81880661, -17.708261489868164, 4.9266743659973145, -146.91041564941406, -14.035981178283691, -9.322060585021973, 6.0134148597717285, -121.54237365722656, -459.9291076660156, -244.72341918945312, 
121, 81897328, -18.87236213684082, -3.802671194076538, -148.60748291015625, -12.391800880432129, -10.242952346801758, 4.7370171546936035, -67.829833984375, -466.3929748535156, -261.0906982421875, 
122, 81913995, -19.000667572021484, -12.6614990234375, -150.32737731933594, -11.489262580871582, -8.96622371673584, 2.8340706825256348, -21.02769660949707, -471.34283447265625, -269.65863037109375, 
123, 81930662, -18.212196350097656, -21.463964462280273, -152.29022216796875, -10.6309814453125, -8.23253059387207, 0.7590808868408203, 14.46202564239502, -466.822509765625, -276.35467529296875, 
124, 81947329, -16.43902587890625, -30.026464462280273, -154.71908569335938, -9.936458587646484, -6.8877644538879395, -1.5029996633529663, 44.826133728027344, -453.68853759765625, -279.88641357421875, 
125, 81963996, -13.40113353729248, -38.091888427734375, -157.82122802734375, -8.73736572265625, -4.930737495422363, -3.203688859939575, 79.54862213134766, -430.0689697265625, -275.3833312988281, 
126, 81980663, -8.901339530944824, -45.566776275634766, -161.9443817138672, -7.649287223815918, -3.044167995452881, -4.633455276489258, 106.1156997680664, -406.10186767578125, -269.3070068359375, 
127, 81997330, -2.8415071964263916, -52.23542022705078, -167.43252563476562, -6.436324596405029, -0.9483102560043335, -5.636235237121582, 116.11966705322266, -377.0095520019531, -257.6919860839844, 
128, 82013997, 4.78681755065918, -58.14127731323242, -174.71324157714844, -5.252514362335205, 1.5110304355621338, -5.100872039794922, 99.27136993408203, -358.9528503417969, -244.39308166503906, 
129, 82030664, 14.4639892578125, -63.36753845214844, 175.58338928222656, -3.029289722442627, 2.4506940841674805, -3.4594082832336426, 72.4043960571289, -356.3228454589844, -228.68551635742188, 
130, 82047331, 27.12613868713379, -67.55693817138672, 162.51182556152344, -0.5134272575378418, 2.8510630130767822, -1.1727622747421265, 45.63732147216797, -349.3370056152344, -215.660888671875, 
131, 82063998, 43.049991607666016, -70.19642639160156, 145.42529296875, -0.9819837212562561, 3.1290335655212402, 1.8097025156021118, -1.7725682258605957, -340.0481262207031, -211.38446044921875, 
132, 82080665, 60.92967987060547, -70.85816955566406, 125.76287841796875, -1.3725186586380005, 0.9252605438232422, 1.2661488056182861, -40.48151397705078, -332.6558837890625, -210.18707275390625, 
133, 82097332, 77.01220703125, -69.51802062988281, 108.03482818603516, -1.4073036909103394, 1.0949034690856934, -1.220467448234558, -36.59012222290039, -306.7706604003906, -202.9040985107422, 
134, 82113999, 88.60348510742188, -66.91876983642578, 95.14451599121094, -0.7825545072555542, 1.6288481950759888, -3.7775015830993652, -23.208038330078125, -264.7021179199219, -189.38137817382812, 
135, 82130666, 96.35104370117188, -63.55323791503906, 86.46248626708984, -0.48277610540390015, 2.303403377532959, -3.0330212116241455, -8.46276569366455, -226.33021545410156, -191.41526794433594, 
136, 82147333, 101.5540771484375, -59.78982925415039, 80.4100112915039, 0.7011364102363586, 3.764533281326294, -2.7951292991638184, -7.668974876403809, -204.98951721191406, -195.536865234375, 
137, 82164000, 104.41160583496094, -56.02509689331055, 76.52333068847656, 2.794867515563965, 5.282827854156494, -4.446377277374268, -26.198040008544922, -171.11622619628906, -191.6869354248047, 
138, 82180667, 105.75084686279297, -52.646114349365234, 74.19158172607422, 4.27207088470459, 5.718931198120117, -5.419491291046143, -33.341819763183594, -131.12962341308594, -173.97604370117188, 
139, 82197334, 106.06424713134766, -49.592159271240234, 73.12134552001953, 5.10738468170166, 5.445486545562744, -5.388907432556152, -31.1961727142334, -88.57585906982422, -164.62034606933594, 
140, 82214001, 105.97915649414062, -46.89442825317383, 72.79267883300781, 4.346582412719727, 6.657580375671387, -3.4561824798583984, -19.833372116088867, -56.86848449707031, -151.39833068847656, 
141, 82230668, 105.8158950805664, -44.64637756347656, 72.65225219726562, 3.7042505741119385, 8.605443000793457, -2.2175192832946777, -15.852261543273926, -42.17063522338867, -127.54267883300781, 
142, 82247335, 105.42220306396484, -42.893310546875, 72.71090698242188, 4.927210330963135, 9.63978099822998, -1.881106972694397, -21.194091796875, -25.445302963256836, -101.38736724853516, 
143, 82264002, 105.0669174194336, -41.64506149291992, 72.85111999511719, 5.708434581756592, 9.30681324005127, -0.7594479918479919, -15.656900405883789, -13.265498161315918, -73.28417205810547, 
144, 82280669, 104.87015533447266, -40.873260498046875, 72.86710357666016, 7.102900505065918, 10.351527214050293, -0.894463300704956, -11.157567024230957, -10.857230186462402, -44.30875778198242, 
145, 82297336, 104.64557647705078, -40.566307067871094, 72.64433288574219, 7.233231067657471, 13.887322425842285, -0.2440803349018097, -22.166440963745117, -14.095340728759766, -14.617507934570312, 
146, 82314003, 104.46329498291016, -40.558570861816406, 71.9979019165039, 4.279123783111572, 16.5196590423584, -0.25517788529396057, -36.11207962036133, -28.252765655517578, 7.582257270812988, 
147, 82330670, 104.18167114257812, -40.958282470703125, 70.9964599609375, 3.8736815452575684, 17.971242904663086, -1.7408864498138428, -56.0593376159668, -37.77656173706055, 35.172786712646484, 
148, 82347337, 104.39384460449219, -41.73955154418945, 69.8743896484375, 7.895118713378906, 15.595296859741211, -1.690981388092041, -31.668073654174805, -37.00180435180664, 58.63413619995117, 
149, 82364004, 105.1649169921875, -42.76099395751953, 69.05635833740234, 9.306365013122559, 12.418231010437012, -2.3435120582580566, 13.347573280334473, -19.088275909423828, 69.27360534667969, 
150, 82380671, 106.10307312011719, -43.829681396484375, 68.60691833496094, 9.191880226135254, 11.72036075592041, -4.000931262969971, 37.8802375793457, -1.214362382888794, 67.76970672607422, 
151, 82397338, 106.59520721435547, -44.757957458496094, 68.35071563720703, 9.636329650878906, 11.042461395263672, -4.453184604644775, 18.869792938232422, 5.532087802886963, 57.26047134399414, 
152, 82414005, 106.64364624023438, -45.48452377319336, 68.24417114257812, 9.966815948486328, 8.726978302001953, -4.021927356719971, -1.5576215982437134, 8.565747261047363, 43.77056884765625, 
153, 82430672, 106.54328155517578, -46.08740234375, 68.38770294189453, 9.635144233703613, 8.423745155334473, -3.3814520835876465, 0.2090839147567749, 16.501262664794922, 33.63037872314453, 
154, 82447339, 106.6257553100586, -46.787689208984375, 68.67810821533203, 8.675726890563965, 10.0966796875, -2.5654213428497314, 17.623746871948242, 23.912303924560547, 37.493831634521484, 
155, 82464006, 106.96063995361328, -47.83396530151367, 69.02494812011719, 7.591555595397949, 11.638042449951172, -2.0925023555755615, 35.4361457824707, 32.055049896240234, 56.667781829833984, 
156, 82480673, 107.38749694824219, -49.38605880737305, 69.4480972290039, 6.7002854347229, 12.43859577178955, -2.3230082988739014, 44.71107864379883, 43.9511604309082, 84.67115020751953, 
157, 82497340, 107.8053970336914, -51.599853515625, 69.97198486328125, 5.6614603996276855, 12.714826583862305, -2.363675594329834, 49.37700653076172, 59.64289855957031, 121.24524688720703, 
158, 82514007, 108.05525207519531, -54.468345642089844, 70.60517883300781, 4.497978687286377, 11.948659896850586, -2.149740219116211, 45.404296875, 75.16607666015625, 157.42457580566406, 
159, 82530674, 107.91230010986328, -57.97708511352539, 71.46932983398438, 3.505141258239746, 10.696637153625488, -2.1604409217834473, 34.593448638916016, 92.88137817382812, 192.07470703125, 
160, 82547341, 107.00764465332031, -62.06129837036133, 72.83818054199219, 2.423929214477539, 9.454253196716309, -2.0783989429473877, 16.96158790588379, 113.15644073486328, 222.2034454345703, 
161, 82564008, 105.2926025390625, -66.66532897949219, 74.75965118408203, 1.5484778881072998, 7.781946182250977, -1.6632719039916992, 1.18571937084198, 125.2448959350586, 252.2279052734375, 
162, 82580675, 102.58511352539062, -71.60469818115234, 77.49822235107422, 1.256003975868225, 5.165993690490723, -1.328162670135498, -8.691756248474121, 128.68685913085938, 274.27606201171875, 
163, 82597342, 97.54283142089844, -76.76255798339844, 82.4083480834961, 1.2920879125595093, 4.057166576385498, -1.5237548351287842, -18.69696617126465, 133.60215759277344, 291.22125244140625, 
164, 82614009, 84.99076080322266, -81.99567413330078, 94.51394653320312, 0.8008021712303162, 3.653386354446411, -1.4484038352966309, -38.3057975769043, 141.05145263671875, 310.0423583984375, 
165, 82630676, 39.033329010009766, -85.93273162841797, 139.40518188476562, -0.5457720756530762, 2.542095422744751, -0.730186939239502, -75.88096618652344, 141.87890625, 323.2565612792969, 
166, 82647343, -30.597307205200195, -83.80663299560547, -152.92982482910156, -2.5282833576202393, 1.6412856578826904, -0.504499077796936, -129.9781036376953, 131.40171813964844, 334.576171875, 
167, 82664010, -52.91740036010742, -78.15585327148438, -133.77870178222656, -3.5953071117401123, 0.8168163895606995, -2.924940586090088, -202.4556427001953, 130.43275451660156, 357.3304443359375, 
168, 82680677, -62.83537292480469, -71.4906997680664, -127.58494567871094, -4.399030685424805, -2.573962926864624, -2.4957802295684814, -235.43861389160156, 130.41427612304688, 390.7955322265625, 
169, 82697344, -68.38396453857422, -64.57757568359375, -125.14734649658203, -4.084662437438965, -6.942107677459717, -0.42815643548965454, -196.72744750976562, 121.8387222290039, 401.07098388671875, 
170, 82714011, -71.5124740600586, -57.65180206298828, -123.98949432373047, -3.5574588775634766, -8.912850379943848, 0.10411210358142853, -126.56327056884766, 111.32556915283203, 402.49322509765625, 
171, 82730678, -73.10376739501953, -50.71146774291992, -123.36011505126953, -2.5881786346435547, -10.685089111328125, -1.2954789400100708, -64.68626403808594, 105.85374450683594, 403.9456787109375, 
172, 82747345, -73.0683822631836, -43.63706588745117, -123.36885833740234, -2.3534789085388184, -9.489229202270508, -2.6829934120178223, 1.7739825248718262, 124.18846893310547, 406.3879089355469, 
173, 82764012, -72.25940704345703, -36.21310043334961, -123.68236541748047, -2.6343629360198975, -7.286139488220215, -4.412117004394531, 36.438480377197266, 146.8602294921875, 421.2091369628906, 
174, 82780679, -71.7186279296875, -28.740596771240234, -124.26290130615234, -2.4077742099761963, -10.191510200500488, -6.707568645477295, 13.754707336425781, 166.9420928955078, 417.54022216796875, 
175, 82797346, -71.3037109375, -21.807065963745117, -125.67085266113281, -2.005819320678711, -18.087032318115234, -7.093292713165283, -11.111614227294922, 204.75535583496094, 370.4877014160156, 
176, 82814013, -70.36422729492188, -15.39278793334961, -127.88841247558594, -0.9961910247802734, -21.767047882080078, -6.052257061004639, 14.016740798950195, 245.84571838378906, 322.19598388671875, 
177, 82830680, -68.99274444580078, -9.187398910522461, -130.6921844482422, -0.509709894657135, -21.148115158081055, -5.118999004364014, 46.607818603515625, 283.809326171875, 292.0674743652344, 
178, 82847347, -67.61570739746094, -3.3946568965911865, -134.22474670410156, -0.42800983786582947, -22.45731544494629, -3.927887439727783, 59.601043701171875, 324.57440185546875, 245.02545166015625, 
179, 82864014, -66.249267578125, 1.5766440629959106, -138.6380157470703, -1.799993872642517, -24.387847900390625, -0.8034707903862, 78.07157135009766, 360.748779296875, 170.6519012451172, 
180, 82880681, -64.66326904296875, 5.578239917755127, -143.6508026123047, -4.052169322967529, -23.423816680908203, 5.202086448669434, 114.26725006103516, 373.03619384765625, 93.71159362792969, 
181, 82897348, -62.77203369140625, 8.793901443481445, -148.51834106445312, -6.7342071533203125, -18.027626037597656, 11.804970741271973, 150.37783813476562, 345.45166015625, 44.7741813659668, 
182, 82914015, -61.86357879638672, 11.02600383758545, -153.48101806640625, -5.537447929382324, -19.66559410095215, 9.30501937866211, 106.16173553466797, 322.1418762207031, -17.524213790893555, 
183, 82930682, -61.411521911621094, 12.068936347961426, -158.8495330810547, -6.995354175567627, -20.892559051513672, 8.527373313903809, 92.03268432617188, 307.61474609375, -94.62914276123047, 
184, 82947349, -61.37406539916992, 12.070147514343262, -164.3421630859375, -9.682868957519531, -18.986635208129883, 8.544598579406738, 71.61885070800781, 283.1670227050781, -153.94712829589844, 
185, 82964016, -61.790626525878906, 11.254010200500488, -169.4625244140625, -10.584343910217285, -15.540392875671387, 10.8768949508667, 37.609371185302734, 241.53355407714844, -185.93624877929688, 
186, 82980683, -62.64594268798828, 9.928382873535156, -173.87579345703125, -9.037489891052246, -12.121389389038086, 12.105998039245605, -2.1432151794433594, 193.43707275390625, -191.37680053710938, 
187, 82997350, -63.7961540222168, 8.30783748626709, -177.5579071044922, -7.571282863616943, -9.591795921325684, 11.40861988067627, -33.536678314208984, 151.1782989501953, -184.7794647216797, 
188, 83014017, -65.13689422607422, 6.427844524383545, 179.3780975341797, -6.73983097076416, -8.528974533081055, 10.472699165344238, -56.461971282958984, 116.16112518310547, -180.06842041015625, 
189, 83030684, -66.50730895996094, 4.315216064453125, 176.78466796875, -5.831003189086914, -8.142252922058105, 9.332649230957031, -67.31453704833984, 89.69588470458984, -178.7904510498047, 
190, 83047351, -67.70081329345703, 2.1898157596588135, 174.62445068359375, -5.51641845703125, -6.852977275848389, 7.910845756530762, -63.97483825683594, 69.8779067993164, -167.52540588378906, 
191, 83064018, -68.63790893554688, 0.3008507490158081, 172.9215087890625, -5.156810283660889, -4.489671230316162, 7.082639694213867, -53.77871322631836, 52.965301513671875, -142.9076690673828, 
192, 83080685, -69.430908203125, -1.231893539428711, 171.7336883544922, -3.7886362075805664, -3.2891457080841064, 6.144734859466553, -47.987510681152344, 33.92063903808594, -111.09302520751953, 
193, 83097352, -70.19430541992188, -2.524937868118286, 170.9213104248047, -1.787793517112732, -2.611900568008423, 4.729657173156738, -47.28111267089844, 19.228343963623047, -89.34347534179688, 
194, 83114019, -71.36089324951172, -2.849100351333618, 170.60714721679688, -3.3041155338287354, 4.931549072265625, 2.2974140644073486, -70.80220031738281, 11.651793479919434, -24.266027450561523, 
195, 83130686, -72.67887878417969, -2.491244077682495, 170.53538513183594, -3.2617955207824707, -2.132173776626587, 4.7296013832092285, -79.24270629882812, 10.99181842803955, 19.39837646484375, 
196, 83147353, -71.7803955078125, -2.0305111408233643, 170.46661376953125, -2.00995135307312, -5.423000335693359, 5.421844005584717, 53.741756439208984, 12.632455825805664, 25.371723175048828, 
197, 83164020, -69.9960708618164, -1.4775335788726807, 170.4958038330078, -1.4571386575698853, -7.535041809082031, 2.2802610397338867, 107.07150268554688, 9.473539352416992, 32.239681243896484, 
198, 83180687, -68.36136627197266, -0.92290860414505, 170.58721923828125, -0.07883024215698242, -11.185185432434082, 2.444516897201538, 98.1720962524414, 6.9633402824401855, 33.36681365966797, 
199, 83197354, -67.56778717041016, -0.3976576626300812, 170.8727569580078, 0.884138822555542, -11.761520385742188, 2.983673572540283, 47.817012786865234, -3.7955682277679443, 35.95302963256836, 
200, 83214021, -67.99295043945312, 0.09075788408517838, 171.28042602539062, 2.1801035404205322, -12.516189575195312, 2.7849960327148438, -25.41755485534668, -11.292915344238281, 36.69782257080078, 
201, 83230688, -68.96085357666016, 0.20394136011600494, 171.54483032226562, 3.1612558364868164, -14.67836856842041, 3.0739166736602783, -58.068233489990234, -11.987025260925293, 12.473602294921875, 
202, 83247355, -69.64506530761719, -0.11368900537490845, 171.5977325439453, 3.5361995697021484, -14.475183486938477, 3.8365745544433594, -40.98782730102539, -9.410762786865234, -16.34794807434082, 
203, 83264022, -69.72435760498047, -0.5778290629386902, 171.5641632080078, 3.165127992630005, -11.932126998901367, 4.159289836883545, -4.701173305511475, -7.47371768951416, -26.42596435546875, 
204, 83280689, -69.21646881103516, -0.7610795497894287, 171.51284790039062, 1.3250775337219238, -7.490768909454346, 4.4765095710754395, 30.49216079711914, -0.6575571894645691, -10.955000877380371, 
205, 83297356, -68.37750244140625, -0.8132879137992859, 171.57493591308594, -0.23012098670005798, -7.393111705780029, 5.226274490356445, 50.41630172729492, -4.288026332855225, -1.1276987791061401, 
206, 83314023, -67.61541748046875, -1.034838080406189, 171.6376495361328, -0.864346444606781, -8.280341148376465, 4.168869972229004, 45.782249450683594, -8.15152359008789, -10.458683013916016, 
207, 83330690, -67.066162109375, -1.1907048225402832, 171.72955322265625, -1.0404576063156128, -8.200883865356445, 3.229179859161377, 33.05353546142578, -8.375578880310059, -6.053970813751221, 
208, 83347357, -66.83946228027344, -1.262444257736206, 171.87420654296875, -0.44316619634628296, -8.601763725280762, 2.6738028526306152, 13.79240608215332, -9.358376502990723, -0.12338930368423462, 
209, 83364024, -66.81346893310547, -1.295737862586975, 172.02090454101562, 0.1657581627368927, -8.839030265808105, 2.2576916217803955, 1.7769391536712646, -8.56440258026123, 2.056706666946411, 
210, 83380691, -66.93779754638672, -1.3444979190826416, 172.14306640625, 0.19767650961875916, -9.000391960144043, 2.088076114654541, -7.248153209686279, -7.576035022735596, 0.6104212999343872, 
211, 83397358, -67.00225830078125, -1.4232391119003296, 172.2373046875, 0.07167433202266693, -9.241147994995117, 2.452199935913086, -3.664870262145996, -6.737819194793701, -1.7218012809753418, 
212, 83414025, -66.83014678955078, -1.5185471773147583, 172.3378143310547, -0.13126054406166077, -9.17995834350586, 3.177638530731201, 10.566582679748535, -7.473892688751221, -2.4896841049194336, 
213, 83430692, -66.40460968017578, -1.650020718574524, 172.46282958984375, -0.4343886375427246, -9.273191452026367, 3.6069979667663574, 25.833545684814453, -9.698147773742676, -3.864147901535034, 
214, 83447359, -65.72266387939453, -1.8152449131011963, 172.5864715576172, -0.8416593670845032, -9.720453262329102, 4.045138835906982, 41.239219665527344, -10.488546371459961, -5.658714771270752, 
215, 83464026, -64.66708374023438, -1.9930166006088257, 172.7270965576172, -1.0495127439498901, -9.962337493896484, 4.798325061798096, 63.72015380859375, -11.82457447052002, -5.762520790100098, 
216, 83480693, -63.13278579711914, -2.1520612239837646, 172.91184997558594, -1.1032829284667969, -9.69510269165039, 5.3904337882995605, 92.56288146972656, -13.847830772399902, -3.3239009380340576, 
217, 83497360, -61.0677604675293, -2.247373342514038, 173.1810302734375, -1.2663685083389282, -8.668953895568848, 5.443412780761719, 124.61986541748047, -16.6481876373291, 2.8610148429870605, 
218, 83514027, -58.48223114013672, -2.1200146675109863, 173.5584716796875, -1.3793548345565796, -7.308690071105957, 4.900865077972412, 156.0863494873047, -15.42730712890625, 18.350736618041992, 
219, 83530694, -55.47706985473633, -1.727196455001831, 174.03317260742188, -1.7347683906555176, -6.598752021789551, 4.84907865524292, 181.35191345214844, -10.757314682006836, 35.62326431274414, 
220, 83547361, -51.89377975463867, -1.0603301525115967, 174.59909057617188, -1.9829795360565186, -6.2326979637146, 4.7327399253845215, 215.9058074951172, -3.4079020023345947, 52.68656539916992, 
221, 83564028, -47.709922790527344, -0.07806812971830368, 175.2841033935547, -2.2742912769317627, -5.081138610839844, 4.158287525177002, 251.52401733398438, 6.876871109008789, 71.87762451171875, 
222, 83580695, -43.18009567260742, 1.271120309829712, 176.08103942871094, -2.327277421951294, -4.112179279327393, 3.1498448848724365, 271.37677001953125, 22.930252075195312, 91.55779266357422, 
223, 83597362, -38.54833984375, 2.920994520187378, 176.99365234375, -2.5076704025268555, -3.535499334335327, 2.8110740184783936, 275.997314453125, 39.23666000366211, 106.47367858886719, 
224, 83614029, -34.220664978027344, 4.824584484100342, 178.03662109375, -2.9542300701141357, -2.691437244415283, 2.919109344482422, 255.5421600341797, 55.04961395263672, 118.32884979248047, 
225, 83630696, -30.40957260131836, 6.937805652618408, 179.26239013671875, -3.328162431716919, -2.2860984802246094, 3.302635431289673, 221.2487335205078, 68.13632202148438, 129.91348266601562, 
226, 83647363, -27.214420318603516, 9.246499061584473, -179.18402099609375, -3.532477617263794, -1.5844104290008545, 3.7758309841156006, 178.7144012451172, 76.93440246582031, 147.91693115234375, 
227, 83664030, -24.738412857055664, 11.775915145874023, -177.3264923095703, -3.2233808040618896, -0.9159120321273804, 3.787888765335083, 128.35301208496094, 88.4245376586914, 165.2681121826172, 
228, 83680697, -23.3726749420166, 14.424077033996582, -175.27328491210938, -3.727396011352539, -0.9295369386672974, 4.347297668457031, 54.14776611328125, 96.13207244873047, 174.60800170898438, 
229, 83697364, -23.598024368286133, 17.10125732421875, -173.009033203125, -5.348844528198242, -1.046893835067749, 4.929593563079834, -50.287940979003906, 95.13839721679688, 184.192138671875, 
230, 83714031, -25.331575393676758, 19.748010635375977, -170.55784606933594, -6.569211006164551, -2.1898176670074463, 4.857901096343994, -150.33876037597656, 86.64177703857422, 193.0131072998047, 
231, 83730698, -28.02381134033203, 22.31468963623047, -168.10739135742188, -6.388576507568359, -5.811892986297607, 4.583359241485596, -214.1190185546875, 75.82414245605469, 191.96475219726562, 
232, 83747365, -30.953981399536133, 24.916654586791992, -165.9858856201172, -5.530116558074951, -10.243024826049805, 4.156192302703857, -226.58108520507812, 78.26255798339844, 178.5092315673828, 
233, 83764032, -33.237091064453125, 27.615922927856445, -164.2286834716797, -5.358063220977783, -12.240694046020508, 5.29469108581543, -183.35952758789062, 86.6949462890625, 166.22763061523438, 
234, 83780699, -34.5184440612793, 30.393310546875, -162.58465576171875, -5.743997097015381, -11.087638854980469, 5.818191051483154, -124.36864471435547, 89.94824981689453, 164.56153869628906, 
235, 83797366, -35.04555130004883, 33.243534088134766, -161.05084228515625, -5.635074138641357, -9.355839729309082, 5.895439624786377, -79.77261352539062, 95.50241088867188, 161.82359313964844, 
236, 83814033, -35.35422134399414, 36.06260299682617, -159.64556884765625, -5.628772258758545, -8.01639175415039, 5.971822738647461, -66.07093048095703, 97.87236022949219, 154.22801208496094, 
237, 83830700, -35.706077575683594, 38.88557052612305, -158.27737426757812, -5.857705593109131, -6.999546527862549, 5.548666477203369, -70.65914154052734, 99.61698913574219, 151.51637268066406, 
238, 83847367, -36.06885528564453, 41.755130767822266, -156.837890625, -6.174787521362305, -6.565593719482422, 5.375576496124268, -77.25663757324219, 100.51976013183594, 154.35552978515625, 
239, 83864034, -36.28056335449219, 44.6746826171875, -155.25473022460938, -6.714491367340088, -6.284636497497559, 5.597975254058838, -77.3623046875, 100.1714859008789, 159.36827087402344, 
240, 83880701, -36.316375732421875, 47.575355529785156, -153.40069580078125, -7.467634677886963, -5.832932949066162, 5.382091045379639, -81.96990203857422, 94.25626373291016, 165.26953125, 
241, 83897368, -36.10936737060547, 50.462432861328125, -151.12216186523438, -8.284806251525879, -5.39336633682251, 5.1065826416015625, -90.44412231445312, 86.42086029052734, 174.78211975097656, 
242, 83914035, -35.48788070678711, 53.331085205078125, -148.33514404296875, -8.734098434448242, -5.328320026397705, 4.759314060211182, -93.9834213256836, 78.85253143310547, 184.4662628173828, 
243, 83930702, -34.41679763793945, 56.17388916015625, -145.09107971191406, -9.381291389465332, -5.5799055099487305, 4.746734142303467, -94.40758514404297, 75.04473114013672, 189.87057495117188, 
244, 83947369, -32.87064743041992, 58.9243278503418, -141.37884521484375, -10.543428421020508, -5.935952663421631, 5.224172115325928, -94.93160247802734, 70.7514877319336, 191.0042266845703, 
245, 83964036, -30.842573165893555, 61.45777130126953, -137.19349670410156, -11.577474594116211, -5.940425395965576, 5.688571929931641, -95.97931671142578, 62.8052978515625, 186.34283447265625, 
246, 83980703, -28.3892879486084, 63.6929817199707, -132.52040100097656, -11.943252563476562, -5.196584701538086, 5.548274517059326, -101.4733657836914, 52.367713928222656, 178.64569091796875, 
247, 83997370, -25.948089599609375, 65.6503677368164, -127.60350799560547, -11.698623657226562, -4.59250020980835, 5.001190662384033, -119.98578643798828, 46.479095458984375, 166.03102111816406, 
248, 84014037, -24.2164249420166, 67.3046875, -122.90320587158203, -11.317529678344727, -4.040793418884277, 4.589836597442627, -154.48818969726562, 41.847652435302734, 144.17837524414062, 
249, 84030704, -23.747251510620117, 68.63965606689453, -118.8675765991211, -10.733036041259766, -3.6021409034729004, 4.555866718292236, -196.1069793701172, 35.99103927612305, 115.72967529296875, 
250, 84047371, -24.54839515686035, 69.65179443359375, -115.75592803955078, -10.115636825561523, -3.8079423904418945, 5.260702133178711, -222.3374786376953, 28.005525588989258, 85.72555541992188, 
251, 84064038, -26.20041847229004, 70.36841583251953, -113.72221374511719, -9.583763122558594, -5.296456336975098, 5.994766712188721, -213.5970001220703, 20.827213287353516, 56.392112731933594, 
252, 84080705, -28.125341415405273, 70.89244842529297, -112.90668487548828, -9.061044692993164, -6.487133026123047, 6.100417137145996, -161.46969604492188, 20.511398315429688, 29.16497230529785, 
253, 84097372, -29.763263702392578, 71.3312759399414, -113.27906799316406, -8.696378707885742, -6.435246467590332, 5.823424816131592, -76.95927429199219, 26.592498779296875, 6.9383745193481445, 
254, 84114039, -30.825658798217773, 71.76773071289062, -114.62295532226562, -8.729246139526367, -5.5392985343933105, 5.619997978210449, 12.915119171142578, 35.62703323364258, -8.149486541748047, 
255, 84130706, -31.325450897216797, 72.17782592773438, -116.5922622680664, -9.196158409118652, -4.137348651885986, 5.303192138671875, 82.52498626708984, 40.18854904174805, -17.80582618713379, 
256, 84147373, -31.248159408569336, 72.55025482177734, -118.6097640991211, -9.350281715393066, -2.494658946990967, 5.0484771728515625, 120.13585662841797, 38.47126388549805, -18.834741592407227, 
257, 84164040, -30.749195098876953, 72.85145568847656, -120.2735366821289, -9.234928131103516, -1.157366156578064, 4.99938440322876, 125.36318969726562, 31.1893310546875, -15.188640594482422, 
258, 84180707, -30.10779571533203, 73.06324768066406, -121.42194366455078, -9.057602882385254, -0.37390732765197754, 5.0794358253479, 104.4608154296875, 21.660293579101562, -10.021136283874512, 
259, 84197374, -29.705385208129883, 73.09518432617188, -122.15122985839844, -9.2547607421875, -0.3856620192527771, 5.399972915649414, 66.08189392089844, 8.549308776855469, -9.131834983825684, 
260, 84214041, -29.754817962646484, 72.86727905273438, -122.60630798339844, -9.5416898727417, -0.8803301453590393, 5.469789028167725, 23.19597053527832, -7.310811519622803, -12.767471313476562, 
261, 84230708, -30.24424934387207, 72.41496276855469, -122.87596893310547, -9.673636436462402, -0.9772734642028809, 4.957311630249023, -13.89146900177002, -20.428913116455078, -16.779783248901367, 
262, 84247375, -30.787019729614258, 71.82575225830078, -122.8297348022461, -9.729846000671387, -1.1780574321746826, 4.770360946655273, -35.18777084350586, -30.186813354492188, -16.235877990722656, 
263, 84264042, -31.16921043395996, 71.12015533447266, -122.58736419677734, -9.604270935058594, -2.39733624458313, 4.680446147918701, -36.716583251953125, -37.9379768371582, -16.830974578857422, 
264, 84280709, -31.291805267333984, 70.32141876220703, -122.34852600097656, -9.258018493652344, -3.2641947269439697, 4.41718864440918, -20.88753890991211, -42.64951705932617, -19.759428024291992, 
265, 84297376, -31.10133934020996, 69.4713363647461, -122.18379211425781, -9.031084060668945, -3.435824155807495, 4.368503570556641, 2.1409332752227783, -44.5616340637207, -22.41510581970215, 
266, 84314043, -30.71027946472168, 68.54985046386719, -122.18589782714844, -9.037392616271973, -3.410205125808716, 4.699989318847656, 23.572463989257812, -46.53522872924805, -27.276674270629883, 
267, 84330710, -30.34068489074707, 67.4563980102539, -122.35315704345703, -9.59312629699707, -2.692662239074707, 5.39125394821167, 31.46919822692871, -53.666988372802734, -35.34580612182617, 
268, 84347377, -30.18699073791504, 66.18614196777344, -122.48515319824219, -9.730417251586914, -1.6110560894012451, 4.903237342834473, 16.48419761657715, -63.26106262207031, -39.84920883178711, 
269, 84364044, -30.36421775817871, 64.82196807861328, -122.54374694824219, -9.545930862426758, -1.602644681930542, 4.558774471282959, -7.458736419677734, -68.93549346923828, -41.2719612121582, 
270, 84380711, -30.667932510375977, 63.434844970703125, -122.51862335205078, -9.473552703857422, -2.2527410984039307, 4.48035192489624, -19.604595184326172, -71.01042938232422, -40.44804763793945, 
271, 84397378, -30.802701950073242, 61.97121047973633, -122.41492462158203, -9.482748985290527, -3.1936545372009277, 5.36577844619751, -13.636611938476562, -75.91407012939453, -41.17591857910156, 
272, 84414045, -30.66114616394043, 60.448829650878906, -122.28041076660156, -9.027682304382324, -3.514112949371338, 5.172597408294678, 1.4008944034576416, -79.4474105834961, -42.0526008605957, 
273, 84430712, -30.384933471679688, 58.93016815185547, -122.1973876953125, -8.833890914916992, -3.3694608211517334, 4.993068218231201, 12.259127616882324, -78.68736267089844, -42.79507827758789, 
274, 84447379, -30.146215438842773, 57.440032958984375, -122.15435791015625, -8.835457801818848, -2.770975351333618, 4.454625129699707, 12.12515640258789, -76.80760955810547, -42.54570388793945, 
275, 84464046, -30.016916275024414, 56.03368377685547, -122.10910034179688, -8.809576988220215, -2.136622905731201, 4.087043285369873, 5.496362209320068, -72.66919708251953, -39.671844482421875, 
276, 84480713, -29.737157821655273, 54.63959884643555, -121.97115325927734, -8.852974891662598, -3.1413040161132812, 5.053889751434326, 9.994840621948242, -73.81188201904297, -36.29061508178711, 
277, 84497380, -29.07184410095215, 53.25582504272461, -121.84072875976562, -8.740617752075195, -4.321193218231201, 5.269603729248047, 33.620296478271484, -73.5341567993164, -35.46666717529297, 
278, 84514047, -28.157785415649414, 51.89266586303711, -121.83522033691406, -8.838859558105469, -3.8829782009124756, 4.956400394439697, 54.629459381103516, -70.82569122314453, -37.69036865234375, 
279, 84530714, -27.32670021057129, 50.5328254699707, -121.8705062866211, -8.946558952331543, -2.44635009765625, 4.4363532066345215, 51.5880012512207, -70.53221893310547, -37.863590240478516, 
280, 84547381, -26.84514617919922, 49.11479568481445, -121.8541030883789, -8.835129737854004, -2.2173242568969727, 4.783287525177002, 28.229122161865234, -75.02395629882812, -36.9403190612793, 
281, 84564048, -26.559825897216797, 47.58528137207031, -121.80297088623047, -8.648387908935547, -3.423311471939087, 5.358466148376465, 14.9239501953125, -81.93696594238281, -38.24458312988281, 
282, 84580715, -26.207294464111328, 46.060970306396484, -121.85049438476562, -8.315555572509766, -4.1334919929504395, 5.11116886138916, 23.348953247070312, -80.13458251953125, -41.24296569824219, 
283, 84597382, -25.703645706176758, 44.581626892089844, -121.95502471923828, -8.19465446472168, -3.506619691848755, 4.708632469177246, 34.82834243774414, -76.98023223876953, -41.682559967041016, 
284, 84614049, -25.180086135864258, 43.09960174560547, -122.07352447509766, -8.107024192810059, -3.2673795223236084, 5.057065486907959, 36.5137939453125, -77.25094604492188, -41.73802185058594, 
285, 84630716, -24.673770904541016, 41.61790084838867, -122.25101470947266, -7.759790897369385, -3.3130621910095215, 5.306853771209717, 37.75322341918945, -76.51377868652344, -43.5614128112793, 
286, 84647383, -23.9951229095459, 40.18769454956055, -122.45169067382812, -7.287875175476074, -3.3848774433135986, 5.084539413452148, 48.82303237915039, -73.69793701171875, -42.650909423828125, 
287, 84664050, -23.12546730041504, 38.956912994384766, -122.7574462890625, -7.381465911865234, -3.3875038623809814, 4.701449394226074, 64.10920715332031, -61.34834289550781, -41.51862716674805, 
288, 84680717, -22.064321517944336, 37.88018798828125, -123.09954833984375, -7.016902446746826, -2.9859278202056885, 4.7598958015441895, 76.69685363769531, -52.842594146728516, -38.760353088378906, 
289, 84697384, -20.931367874145508, 36.96697998046875, -123.46390533447266, -6.812640190124512, -2.5873172283172607, 4.789662837982178, 81.55899047851562, -44.063560485839844, -35.37831115722656, 
290, 84714051, -19.85406494140625, 36.220252990722656, -123.85366821289062, -6.683178901672363, -2.0690863132476807, 4.878336429595947, 78.89379119873047, -34.97144317626953, -32.40935516357422, 
291, 84730718, -18.895708084106445, 35.6284065246582, -124.22013092041016, -6.642252445220947, -1.5469574928283691, 4.804025650024414, 70.72550201416016, -27.192880630493164, -27.83721923828125, 
292, 84747385, -18.10472869873047, 35.215919494628906, -124.5363540649414, -6.428731918334961, -1.475121021270752, 4.528653621673584, 58.7823371887207, -18.256372451782227, -21.840744018554688, 
293, 84764052, -17.434246063232422, 34.98711013793945, -124.80904388427734, -6.423442363739014, -1.5998313426971436, 4.709125518798828, 49.96784591674805, -8.779998779296875, -16.32685661315918, 
294, 84780719, -16.821870803833008, 34.90441131591797, -125.02889251708984, -6.50002384185791, -1.3720647096633911, 5.097665786743164, 44.63731384277344, -1.4485050439834595, -11.241389274597168, 
295, 84797386, -16.32615852355957, 34.94431686401367, -125.20362854003906, -6.4608354568481445, -1.1459877490997314, 5.255061149597168, 36.08415985107422, 4.760616779327393, -7.058298110961914, 
296, 84814053, -15.979364395141602, 35.06317138671875, -125.35867309570312, -6.459805488586426, -1.4936703443527222, 5.676954746246338, 26.480966567993164, 8.887566566467285, -4.894709587097168, 
297, 84830720, -15.716241836547852, 35.25432586669922, -125.49079132080078, -6.557925701141357, -1.6583677530288696, 6.014699935913086, 20.692888259887695, 12.639392852783203, -2.7066338062286377, 
298, 84847387, -15.478300094604492, 35.525917053222656, -125.54610443115234, -6.638021469116211, -1.2192411422729492, 5.998628616333008, 16.542736053466797, 16.184785842895508, 2.1335675716400146, 
299, 84864054, -15.30190658569336, 35.83565902709961, -125.51262664794922, -6.7780070304870605, -1.0524888038635254, 6.326752662658691, 9.753177642822266, 17.166656494140625, 6.815716743469238, 
300, 84880721, -15.244950294494629, 36.119049072265625, -125.47278594970703, -6.856494903564453, -1.5371246337890625, 6.780172824859619, 2.3431413173675537, 15.496565818786621, 6.606135368347168, 
301, 84897388, -15.34518814086914, 36.3747444152832, -125.47978210449219, -6.723538875579834, -1.8810453414916992, 6.823777198791504, -5.437305450439453, 14.429988861083984, 3.944167137145996, 
302, 84914055, -15.509334564208984, 36.629817962646484, -125.51399230957031, -6.708333492279053, -1.9137589931488037, 7.0096001625061035, -8.292779922485352, 14.68408203125, 2.674877882003784, 
303, 84930722, -15.64316177368164, 36.87334060668945, -125.54632568359375, -6.678315162658691, -1.7959315776824951, 7.163567543029785, -6.528830051422119, 13.943425178527832, 2.594991445541382, 
304, 84947389, -15.742096900939941, 37.10636901855469, -125.58324432373047, -6.691262722015381, -1.6421781778335571, 7.069951057434082, -4.263397216796875, 13.355522155761719, 2.225975751876831, 
305, 84964056, -15.802329063415527, 37.28402328491211, -125.6001205444336, -6.818639278411865, -1.8150995969772339, 7.497086048126221, -2.664292097091675, 9.855106353759766, 2.239652395248413, 
306, 84980723, -15.784939765930176, 37.402915954589844, -125.617919921875, -6.739345550537109, -2.09529185295105, 7.76906156539917, 2.0265283584594727, 6.444796562194824, 1.223249912261963, 
307, 84997390, -15.675824165344238, 37.50193786621094, -125.61346435546875, -6.518894195556641, -1.7591229677200317, 7.665391445159912, 6.721055030822754, 4.996116638183594, 1.9045225381851196, 
308, 85014057, -15.600102424621582, 37.59833908081055, -125.59711456298828, -6.396530628204346, -1.5712685585021973, 7.519235134124756, 4.275437831878662, 4.683589458465576, 2.387948989868164, 
309, 85030724, -15.624250411987305, 37.66810607910156, -125.57418823242188, -6.4570746421813965, -1.736970067024231, 7.559232711791992, -1.9675867557525635, 3.0514585971832275, 2.238370418548584, 
310, 85047391, -15.704545021057129, 37.70813751220703, -125.53792572021484, -6.488983154296875, -1.907546043395996, 7.617319107055664, -5.833120822906494, 1.1504074335098267, 2.3568811416625977, 
311, 85064058, -15.756897926330566, 37.74372863769531, -125.4827880859375, -6.411874294281006, -2.0217552185058594, 7.496145725250244, -4.854343414306641, 0.6429300308227539, 3.1401684284210205, 
312, 85080725, -15.770855903625488, 37.79520034790039, -125.409912109375, -6.283266544342041, -1.9831949472427368, 7.234539031982422, -3.2050905227661133, 1.324355959892273, 4.200470447540283, 
313, 85097392, -15.79005241394043, 37.82905960083008, -125.3408432006836, -6.357904434204102, -1.966742992401123, 7.477598190307617, -3.380344867706299, 0.3470648527145386, 3.7314624786376953, 
314, 85114059, -15.840513229370117, 37.82577896118164, -125.29434204101562, -6.445951461791992, -2.163309097290039, 7.602070331573486, -4.429863929748535, -1.5094654560089111, 2.089906692504883, 
315, 85130726, -15.840288162231445, 37.82442855834961, -125.2816390991211, -6.430229187011719, -2.544447422027588, 7.490918159484863, -0.14270752668380737, -0.9658228158950806, 0.5773358345031738, 
316, 85147393, -15.703940391540527, 37.850006103515625, -125.29700469970703, -6.36577844619751, -2.7270660400390625, 7.354983329772949, 9.068741798400879, 0.9497318267822266, -0.25632554292678833, 
317, 85164060, -15.396549224853516, 37.92596435546875, -125.31729125976562, -6.3494391441345215, -2.4108285903930664, 7.261344909667969, 19.532079696655273, 3.9212329387664795, 0.34198126196861267, 
318, 85180727, -15.008421897888184, 37.99723815917969, -125.35594940185547, -6.357177257537842, -2.2907354831695557, 7.233521461486816, 25.0684871673584, 3.8709332942962646, -0.5885363817214966, 
319, 85197394, -14.74939250946045, 38.157432556152344, -125.42107391357422, -6.30075740814209, -1.3844794034957886, 5.944228649139404, 18.317203521728516, 9.333728790283203, -0.44096803665161133, 
320, 85214061, -14.68464183807373, 38.206993103027344, -125.38751983642578, -7.248267650604248, -1.368179440498352, 7.216644287109375, 3.005650281906128, 1.6810382604599, 2.326209306716919, 
321, 85230728, -14.781487464904785, 38.132572174072266, -125.3875503540039, -7.194729328155518, -2.1847476959228516, 7.1727070808410645, -5.451836585998535, -5.156214714050293, -1.1325104236602783, 
322, 85247395, -14.961484909057617, 38.072265625, -125.43624877929688, -6.878529071807861, -2.158029556274414, 6.437379837036133, -8.625060081481934, -3.781235933303833, -3.165109634399414, 
323, 85264062, -15.325345039367676, 37.9998893737793, -125.51054382324219, -6.89208984375, -1.5483758449554443, 6.031047344207764, -18.696149826049805, -4.194283962249756, -4.560111045837402, 
324, 85280729, -15.941579818725586, 37.80828857421875, -125.5828628540039, -7.287055015563965, -1.6702631711959839, 6.589280605316162, -33.91459274291992, -11.126111030578613, -6.475438594818115, 
325, 85297396, -16.740131378173828, 37.507545471191406, -125.71162414550781, -7.552488327026367, -2.6985855102539062, 6.698602199554443, -42.79512405395508, -16.627975463867188, -11.082874298095703, 
326, 85314063, -17.585838317871094, 37.15715026855469, -125.89092254638672, -7.5464959144592285, -2.489980697631836, 6.2923688888549805, -43.792999267578125, -18.648441314697266, -14.549235343933105, 
327, 85330730, -18.509767532348633, 36.7950439453125, -126.09945678710938, -7.2953715324401855, -2.2737486362457275, 5.743842124938965, -47.45903396606445, -18.711423873901367, -16.46456527709961, 
328, 85347397, -19.580175399780273, 36.4610710144043, -126.37698364257812, -7.055746078491211, -2.4535679817199707, 5.06988000869751, -53.81412887573242, -15.803927421569824, -19.466358184814453, 
329, 85364064, -20.688873291015625, 36.195953369140625, -126.76741027832031, -7.160665512084961, -3.1316044330596924, 4.643308162689209, -52.136375427246094, -9.740068435668945, -23.559280395507812, 
330, 85380731, -21.64192771911621, 36.06438446044922, -127.34697723388672, -7.199591159820557, -4.252638816833496, 4.318596839904785, -36.11140060424805, 1.3903961181640625, -29.464754104614258, 
331, 85397398, -22.291662216186523, 36.178009033203125, -128.1394805908203, -7.058130741119385, -3.8665130138397217, 3.759153127670288, -10.289785385131836, 19.206621170043945, -33.522132873535156, 
332, 85414065, -22.72452163696289, 36.53884506225586, -129.07733154296875, -6.896658897399902, -3.0148825645446777, 3.536785364151001, 8.148906707763672, 35.756324768066406, -34.05241012573242, 
333, 85430732, -23.0180606842041, 37.14029312133789, -130.16053771972656, -6.752267837524414, -3.142651319503784, 3.5029284954071045, 22.201812744140625, 51.75760269165039, -34.411563873291016, 
334, 85447399, -23.166385650634766, 38.00482177734375, -131.3811492919922, -6.818708419799805, -3.012965679168701, 3.3174242973327637, 36.695579528808594, 68.66348266601562, -33.57571029663086, 
335, 85464066, -23.17163848876953, 39.13493347167969, -132.68385314941406, -7.007235050201416, -2.893549680709839, 3.549144744873047, 49.44906234741211, 84.44620513916016, -30.024667739868164, 
336, 85480733, -23.13607406616211, 40.489315032958984, -134.09609985351562, -7.134826183319092, -2.8436765670776367, 3.764756441116333, 57.510494232177734, 98.2599868774414, -28.3977108001709, 
337, 85497400, -23.186525344848633, 42.08063507080078, -135.62432861328125, -7.263095378875732, -2.638763189315796, 3.914302110671997, 58.68815612792969, 112.72843170166016, -26.271360397338867, 
338, 85514067, -23.457990646362305, 43.8622932434082, -137.25814819335938, -7.499239444732666, -2.4332175254821777, 4.1517791748046875, 51.83066177368164, 124.30833435058594, -23.981260299682617, 
339, 85530734, -24.03146743774414, 45.818355560302734, -139.0045623779297, -7.760184288024902, -2.3459441661834717, 4.237738609313965, 40.85464096069336, 135.00875854492188, -21.152448654174805, 
340, 85547401, -24.91244888305664, 47.907894134521484, -140.85971069335938, -8.086638450622559, -2.411381244659424, 4.579990863800049, 29.811634063720703, 143.22515869140625, -17.696277618408203, 
341, 85564068, -26.09098243713379, 50.06444549560547, -142.8054656982422, -8.416326522827148, -2.3202943801879883, 5.127750396728516, 18.88357162475586, 147.30601501464844, -13.759382247924805, 
342, 85580735, -27.518543243408203, 52.205726623535156, -144.78492736816406, -8.889762878417969, -2.109619140625, 6.328561782836914, 8.365342140197754, 145.7903594970703, -8.861798286437988, 
343, 85597402, -29.057035446166992, 54.25007247924805, -146.62115478515625, -9.259371757507324, -1.858320713043213, 7.516727447509766, -2.5221400260925293, 136.80657958984375, -0.19041094183921814, 
344, 85614069, -30.689863204956055, 56.1408805847168, -148.20248413085938, -9.279762268066406, -1.7220962047576904, 7.925107955932617, -18.57525062561035, 122.97383117675781, 9.330872535705566, 
345, 85630736, -32.52311325073242, 57.87466049194336, -149.5313720703125, -9.062020301818848, -1.6580400466918945, 7.475419044494629, -41.70802307128906, 109.09471130371094, 17.336179733276367, 
346, 85647403, -34.68085479736328, 59.50296401977539, -150.6797637939453, -8.791658401489258, -1.6512577533721924, 6.615312099456787, -69.26806640625, 99.0644760131836, 24.02751922607422, 
347, 85664070, -37.130252838134766, 61.12762451171875, -151.69418334960938, -8.736327171325684, -1.5427569150924683, 5.457587718963623, -92.83763885498047, 94.62480926513672, 32.50710678100586, 
348, 85680737, -39.67597579956055, 62.86920928955078, -152.58773803710938, -9.163860321044922, -1.5656033754348755, 4.317393779754639, -104.22229766845703, 95.60350036621094, 44.88806915283203, 
349, 85697404, -41.97242736816406, 64.71562194824219, -153.3135223388672, -10.019387245178223, -2.1729538440704346, 4.057833671569824, -97.58451843261719, 94.53356170654297, 57.508609771728516, 
350, 85714071, -43.6182861328125, 66.51783752441406, -153.8404083251953, -10.528780937194824, -3.3775463104248047, 4.267221927642822, -68.8810806274414, 86.37361907958984, 63.47385787963867, 
351, 85730738, -44.56337356567383, 68.14580535888672, -154.34666442871094, -10.47397232055664, -4.066408634185791, 4.260617256164551, -27.644134521484375, 76.5174789428711, 59.16273880004883, 
352, 85747405, -45.00467300415039, 69.48995971679688, -154.81918334960938, -10.523755073547363, -3.237208604812622, 5.088398456573486, 0.9448480606079102, 62.743778228759766, 49.2181282043457, 
353, 85764072, -44.638545989990234, 70.45821380615234, -154.31666564941406, -10.374662399291992, -0.5326913595199585, 5.617582321166992, -5.443230628967285, 32.323211669921875, 48.00458526611328, 
354, 85780739, -43.97920608520508, 71.13227081298828, -153.10150146484375, -9.933198928833008, -0.9526332020759583, 5.373897075653076, -28.477344512939453, 10.715209007263184, 45.098411560058594, 
355, 85797406, -43.52436828613281, 71.45580291748047, -151.97686767578125, -9.375571250915527, -2.970632553100586, 4.9284844398498535, -35.900203704833984, -2.2747130393981934, 28.711591720581055, 
356, 85814073, -43.03196716308594, 71.51624298095703, -151.03091430664062, -9.504558563232422, -3.00885009765625, 5.576897144317627, -23.612672805786133, -10.904443740844727, 15.317992210388184, 
357, 85830740, -42.25471115112305, 71.2905502319336, -149.8903045654297, -9.62401008605957, -2.62058424949646, 6.659634590148926, -17.632610321044922, -25.769241333007812, 6.653537750244141, 
358, 85847407, -41.41879653930664, 70.76163482666016, -148.49307250976562, -9.631115913391113, -2.7927005290985107, 7.658318519592285, -28.617176055908203, -42.640140533447266, -1.0243061780929565, 
359, 85864074, -40.55305862426758, 69.92717742919922, -146.8132781982422, -9.568068504333496, -2.9811599254608154, 8.309087753295898, -42.56135177612305, -60.60032272338867, -7.34370756149292, 
360, 85880741, -39.25748825073242, 68.93468475341797, -144.69888305664062, -9.231327056884766, -2.9131531715393066, 8.084918022155762, -40.74118423461914, -74.58064270019531, -4.02259635925293, 
361, 85897408, -37.743289947509766, 67.76773071289062, -142.377685546875, -8.9498929977417, -3.6910035610198975, 7.465092182159424, -38.39768981933594, -86.84272766113281, -3.3027279376983643, 
362, 85914075, -36.347679138183594, 66.27355194091797, -140.12001037597656, -8.887364387512207, -4.3039727210998535, 7.0798773765563965, -40.84782409667969, -103.26812744140625, -11.61412239074707, 
363, 85930742, -35.1323356628418, 64.39459991455078, -138.03594970703125, -8.535871505737305, -4.73538064956665, 7.530851364135742, -40.641212463378906, -121.66476440429688, -23.182167053222656, 
364, 85947409, -34.07130432128906, 62.159400939941406, -136.1560516357422, -8.255163192749023, -5.0006866455078125, 8.483739852905273, -37.05902099609375, -138.69097900390625, -33.94757080078125, 
365, 85964076, -33.17348861694336, 59.708045959472656, -134.4791259765625, -7.948904991149902, -4.686405658721924, 8.280171394348145, -34.0920524597168, -148.8411407470703, -40.11717987060547, 
366, 85980743, -32.42225646972656, 57.16836929321289, -133.02630615234375, -7.658148288726807, -5.186322212219238, 7.4387431144714355, -29.250598907470703, -151.9381866455078, -43.42844772338867, 
367, 85997410, -31.48471450805664, 54.555274963378906, -131.78329467773438, -7.7584547996521, -5.9758076667785645, 7.7750115394592285, -5.530435085296631, -154.1918182373047, -46.56632614135742, 
368, 86014077, -30.114898681640625, 51.86330795288086, -130.7154083251953, -7.7773356437683105, -5.630129814147949, 8.070189476013184, 30.84210205078125, -157.2825469970703, -48.7073860168457, 
369, 86030744, -28.640727996826172, 49.1406364440918, -129.87254333496094, -7.661295413970947, -4.318007469177246, 7.345410346984863, 49.41210174560547, -156.92245483398438, -50.97040939331055, 
370, 86047411, -27.33928680419922, 46.4051628112793, -129.1968994140625, -7.504840850830078, -3.606476306915283, 6.628781795501709, 48.0781135559082, -156.44949340820312, -51.8005256652832, 
371, 86064078, -26.29509735107422, 43.73259353637695, -128.69989013671875, -7.08262300491333, -3.8267781734466553, 5.510924816131592, 41.57204055786133, -151.32948303222656, -52.3807487487793, 
372, 86080745, -25.383045196533203, 41.22012710571289, -128.44198608398438, -6.840610980987549, -4.190564155578613, 5.210934638977051, 44.35805892944336, -139.4004364013672, -54.27940368652344, 
373, 86097412, -24.295597076416016, 38.926353454589844, -128.3079376220703, -6.611833095550537, -4.088986396789551, 5.026669979095459, 60.21529769897461, -126.27562713623047, -51.08898162841797, 
374, 86114079, -22.969762802124023, 36.89598846435547, -128.2776641845703, -6.464585304260254, -3.558364152908325, 4.818796634674072, 78.64733123779297, -111.03035736083984, -46.4183349609375, 
375, 86130746, -21.590579986572266, 35.110504150390625, -128.3002166748047, -6.301467418670654, -2.530925750732422, 4.436511516571045, 83.81658935546875, -97.63531494140625, -40.5754280090332, 
376, 86147413, -20.35470199584961, 33.61389923095703, -128.34576416015625, -5.943750381469727, -1.9519927501678467, 3.8099122047424316, 76.00218200683594, -82.05084991455078, -33.270286560058594, 
377, 86164080, -19.22691535949707, 32.44890594482422, -128.3986053466797, -5.810200214385986, -1.7962157726287842, 3.766392946243286, 69.7296142578125, -63.990211486816406, -25.276832580566406, 
378, 86180747, -18.066322326660156, 31.576766967773438, -128.41932678222656, -5.9227728843688965, -1.8188021183013916, 4.3393096923828125, 70.6498031616211, -48.47871398925781, -16.916545867919922, 
379, 86197414, -16.954965591430664, 30.971759796142578, -128.44610595703125, -6.04066276550293, -1.6380884647369385, 4.475837707519531, 67.88833618164062, -33.55086135864258, -11.489320755004883, 
380, 86214081, -16.03348731994629, 30.61087989807129, -128.47129821777344, -6.296865463256836, -1.280470609664917, 4.526986122131348, 56.451194763183594, -19.857425689697266, -6.725461483001709, 
381, 86230748, -15.280142784118652, 30.449953079223633, -128.45916748046875, -6.478200435638428, -1.6096570491790771, 4.542086124420166, 45.219688415527344, -9.065675735473633, -1.4049887657165527, 
382, 86247415, -14.611306190490723, 30.45476531982422, -128.4515838623047, -6.667588710784912, -1.794096827507019, 4.831387042999268, 40.304141998291016, 0.43999025225639343, 0.9879770278930664, 
383, 86264082, -14.020562171936035, 30.536832809448242, -128.43629455566406, -6.908877849578857, -1.5065292119979858, 5.6936936378479, 35.40570831298828, 4.697954177856445, 2.4585742950439453, 
384, 86280749, -13.597454071044922, 30.65821647644043, -128.42254638671875, -7.0294508934021, -1.5212358236312866, 6.041508674621582, 25.398025512695312, 6.8952507972717285, 2.8500475883483887, 
385, 86297416, -13.325331687927246, 30.80783462524414, -128.41957092285156, -6.993730545043945, -1.6124722957611084, 6.4006571769714355, 16.672121047973633, 8.562232971191406, 2.6088485717773438, 
386, 86314083, -13.165532112121582, 30.95073699951172, -128.43838500976562, -6.753545761108398, -1.8432159423828125, 6.666646957397461, 10.610180854797363, 8.32521915435791, 1.3468958139419556, 
387, 86330750, -12.988551139831543, 31.110322952270508, -128.44725036621094, -6.539458751678467, -1.9619357585906982, 6.924306392669678, 11.345858573913574, 9.093360900878906, 2.0186026096343994, 
388, 86347417, -12.757161140441895, 31.267284393310547, -128.43434143066406, -6.452247619628906, -1.7315038442611694, 7.307423114776611, 13.949752807617188, 8.620463371276855, 3.0161032676696777, 
389, 86364084, -12.534340858459473, 31.41407585144043, -128.41094970703125, -6.2770819664001465, -1.5413703918457031, 7.4967451095581055, 13.108565330505371, 7.85434627532959, 3.3490171432495117, 
390, 86380751, -12.38085651397705, 31.550586700439453, -128.4232635498047, -6.077569484710693, -1.7114930152893066, 7.560246467590332, 10.061415672302246, 7.60688591003418, 1.3818570375442505, 
391, 86397418, -12.241918563842773, 31.71673583984375, -128.46463012695312, -5.962937355041504, -1.957042932510376, 7.467075347900391, 10.10517692565918, 9.623440742492676, 0.28134292364120483, 
392, 86414085, -12.088309288024902, 31.908109664916992, -128.514892578125, -5.880477428436279, -1.585250973701477, 7.602122783660889, 11.285323143005371, 11.162368774414062, 0.12860147655010223, 
393, 86430752, -11.954791069030762, 32.11180877685547, -128.562744140625, -5.573209285736084, -1.3850458860397339, 7.722392559051514, 10.010116577148438, 11.83138656616211, 0.36929699778556824, 
394, 86447419, -11.832886695861816, 32.30894088745117, -128.6041259765625, -5.55182409286499, -1.374560832977295, 8.196270942687988, 9.10689640045166, 11.366193771362305, 0.5803585648536682, 
395, 86464086, -11.755667686462402, 32.47060775756836, -128.63465881347656, -5.729018211364746, -1.3647114038467407, 8.450212478637695, 6.069457054138184, 9.169593811035156, 0.6629593968391418, 
396, 86480753, -11.696971893310547, 32.61814880371094, -128.62557983398438, -5.766066551208496, -1.3672783374786377, 8.6229829788208, 3.6698524951934814, 7.935853481292725, 2.4405579566955566, 
397, 86497420, -11.576118469238281, 32.73666000366211, -128.5727081298828, -5.670408248901367, -1.538400650024414, 8.701530456542969, 5.96297025680542, 5.791686058044434, 4.234958648681641, 
398, 86514087, -11.460186004638672, 32.85928726196289, -128.49319458007812, -5.647556304931641, -1.1765518188476562, 7.8527727127075195, 4.786758899688721, 5.785488128662109, 5.583634376525879, 
399, 86530754, -11.566615104675293, 32.9332275390625, -128.40884399414062, -6.285076141357422, -0.9882360100746155, 8.122868537902832, -8.735219955444336, 2.8692378997802734, 5.2244672775268555, 
400, 86547421, -11.955124855041504, 32.86436462402344, -128.3970947265625, -6.872825622558594, -1.958508849143982, 8.421576499938965, -23.31653594970703, -4.813910007476807, -0.10978265106678009, 
401, 86564088, -12.33073902130127, 32.791778564453125, -128.44778442382812, -6.681527614593506, -2.738560914993286, 7.557323455810547, -20.502578735351562, -4.401914119720459, -3.2767081260681152, 
402, 86580755, -12.582192420959473, 32.73077392578125, -128.4982147216797, -6.418333053588867, -2.0196373462677, 7.21379280090332, -13.027261734008789, -3.75007963180542, -3.1359763145446777, 
403, 86597422, -12.890846252441406, 32.54794692993164, -128.55050659179688, -6.467324256896973, -1.7206380367279053, 7.605885982513428, -16.389171600341797, -10.882780075073242, -4.867872714996338, 
404, 86614089, -13.413615226745605, 32.25505447387695, -128.6632080078125, -6.680961608886719, -2.298194169998169, 7.510460376739502, -27.30248260498047, -16.614273071289062, -9.451397895812988, 
