sep=,
DeviceTag:,Right_Wrist,,,,,,,,,,,,,,,,,
FirmwareVersion:,1.6.0,,,,,,,,,,,,,,,,,
AppVersion:,2020.4,,,,,,,,,,,,,,,,,
StartTime:,2021-05-31 22:25:39.714 +0100,,,,,,,,,,,,,,,,,
© Xsens Technologies B. V. 2005-2021,,,,,,,,,,,,,,,,,,,

PacketCounter,SampleTimeFine,Euler_X,Euler_Y,Euler_Z,Acc_X,Acc_Y,Acc_Z,Gyr_X,Gyr_Y,Gyr_Z,
0, 1255215543, -21.087921142578125, 71.67870330810547, -150.51907348632812, 0.0, 0.0, 0.0, 0.0, 0.0, 0.0, 
1, 1255232210, -20.794828414916992, 71.60582733154297, -150.51223754882812, -8.874123573303223, -0.6796265244483948, 2.7683677673339844, 12.263809204101562, -0.7260187268257141, -17.096363067626953, 
2, 1255248877, -20.555086135864258, 71.5859375, -150.41717529296875, -8.873473167419434, -0.6139732003211975, 2.7617058753967285, 5.177547454833984, 0.6100381016731262, -22.477609634399414, 
3, 1255265544, -20.665386199951172, 71.5939712524414, -150.55502319335938, -8.834931373596191, -0.5182055830955505, 2.7975761890411377, -1.3030108213424683, 2.630488157272339, -26.364587783813477, 
4, 1255282211, -20.999645233154297, 71.61161804199219, -150.844482421875, -8.921975135803223, -0.5082520246505737, 2.8363146781921387, -4.977266311645508, 4.914534568786621, -28.234817504882812, 
5, 1255298878, -21.63312339782715, 71.62220764160156, -151.34178161621094, -8.999269485473633, -0.5337057113647461, 2.81662654876709, -9.409168243408203, 6.516964435577393, -30.414976119995117, 
6, 1255315545, -22.585073471069336, 71.62055969238281, -152.1087188720703, -9.107514381408691, -0.6135536432266235, 2.853754997253418, -13.162195205688477, 7.450582981109619, -32.92959213256836, 
7, 1255332212, -23.719789505004883, 71.6050033569336, -153.02728271484375, -9.23841381072998, -0.6276081204414368, 2.9490559101104736, -14.738604545593262, 8.05575180053711, -33.52262878417969, 
8, 1255348879, -24.88030242919922, 71.57000732421875, -153.9749298095703, -9.315173149108887, -0.6649872064590454, 3.0244174003601074, -14.924270629882812, 7.9765944480896, -32.75324249267578, 
9, 1255365546, -26.11391258239746, 71.5062484741211, -155.00486755371094, -9.287907600402832, -0.7842496633529663, 2.9522790908813477, -14.83854866027832, 8.038732528686523, -33.56637954711914, 
10, 1255382213, -27.421655654907227, 71.42072296142578, -156.12701416015625, -9.356492042541504, -0.9180244207382202, 2.915961503982544, -13.792585372924805, 8.166682243347168, -34.29207992553711, 
11, 1255398880, -28.745391845703125, 71.32423400878906, -157.31890869140625, -9.409066200256348, -1.1003813743591309, 2.840000867843628, -10.712396621704102, 8.521111488342285, -34.33106994628906, 
12, 1255415547, -30.033079147338867, 71.22402954101562, -158.53794860839844, -9.49202823638916, -1.1563314199447632, 2.849095582962036, -6.265688419342041, 8.807599067687988, -33.555484771728516, 
13, 1255432214, -31.191240310668945, 71.12252807617188, -159.67724609375, -9.486642837524414, -0.9685679078102112, 2.856375217437744, -3.1751797199249268, 8.16571044921875, -31.12325668334961, 
14, 1255448881, -32.2141227722168, 71.02703094482422, -160.68231201171875, -9.411181449890137, -0.9174640774726868, 2.8957648277282715, -3.0354344844818115, 7.366996765136719, -28.443387985229492, 
15, 1255465548, -33.117393493652344, 70.94522094726562, -161.53659057617188, -9.480053901672363, -0.8817728757858276, 2.9547688961029053, -4.7457499504089355, 6.855350971221924, -25.410778045654297, 
16, 1255482215, -33.82988357543945, 70.88626861572266, -162.14956665039062, -9.541958808898926, -0.9248306155204773, 3.002420663833618, -7.141423225402832, 5.7716593742370605, -20.742034912109375, 
17, 1255498882, -34.39470291137695, 70.84513092041016, -162.57469177246094, -9.502543449401855, -1.1053919792175293, 2.9842782020568848, -9.16363525390625, 4.857295036315918, -16.99242401123047, 
18, 1255515549, -34.79609680175781, 70.82949829101562, -162.83351135253906, -9.36780071258545, -1.1912963390350342, 2.9182331562042236, -8.702422142028809, 4.4442362785339355, -13.088972091674805, 
19, 1255532216, -35.07554626464844, 70.84547424316406, -162.97821044921875, -9.20967960357666, -1.2212737798690796, 2.8194944858551025, -7.831151008605957, 4.763830184936523, -9.690363883972168, 
20, 1255548883, -35.288997650146484, 70.89295959472656, -163.06553649902344, -9.26220417022705, -1.3147733211517334, 2.725590705871582, -7.514744281768799, 5.524539947509766, -7.0744099617004395, 
21, 1255565550, -35.48737335205078, 70.95230102539062, -163.12506103515625, -9.397440910339355, -1.4130374193191528, 2.586707830429077, -7.886652946472168, 5.665538311004639, -5.774578094482422, 
22, 1255582217, -35.71442794799805, 71.01344299316406, -163.18589782714844, -9.388744354248047, -1.4164820909500122, 2.433223247528076, -9.089861869812012, 5.532787322998047, -5.317493438720703, 
23, 1255598884, -35.98346710205078, 71.07161712646484, -163.28758239746094, -9.218002319335938, -1.4946120977401733, 2.343254327774048, -9.281176567077637, 5.464453220367432, -5.597440719604492, 
24, 1255615551, -36.298362731933594, 71.12689208984375, -163.46490478515625, -9.025524139404297, -1.503804087638855, 2.3052964210510254, -7.856276512145996, 5.828038215637207, -6.3419508934021, 
25, 1255632218, -36.6359748840332, 71.17345428466797, -163.66424560546875, -8.952229499816895, -1.2877706289291382, 2.2702953815460205, -7.785599708557129, 5.4520697593688965, -6.563898086547852, 
26, 1255648885, -37.052703857421875, 71.20973205566406, -163.89480590820312, -8.910707473754883, -1.106283187866211, 2.2904675006866455, -10.799306869506836, 5.126737594604492, -7.147612571716309, 
27, 1255665552, -37.5992317199707, 71.21814727783203, -164.162841796875, -9.00732707977295, -1.0816965103149414, 2.3074135780334473, -16.697002410888672, 4.097057342529297, -8.559019088745117, 
28, 1255682219, -38.251258850097656, 71.19083404541016, -164.45404052734375, -9.202269554138184, -1.1948908567428589, 2.2796518802642822, -21.830068588256836, 2.625749111175537, -10.128114700317383, 
29, 1255698886, -38.97612762451172, 71.12760925292969, -164.78575134277344, -9.394330978393555, -1.2628812789916992, 2.348522424697876, -24.192508697509766, 1.357649326324463, -11.911240577697754, 
30, 1255715553, -39.6660270690918, 71.04691314697266, -165.09959411621094, -9.581329345703125, -1.1642355918884277, 2.463665246963501, -23.157201766967773, 0.3670116662979126, -12.234435081481934, 
31, 1255732220, -40.2052116394043, 70.96898651123047, -165.29087829589844, -9.717392921447754, -1.043125033378601, 2.545585870742798, -21.132877349853516, -0.951641857624054, -10.311758041381836, 
32, 1255748887, -40.52998733520508, 70.9033203125, -165.2979278564453, -9.742691040039062, -1.1592735052108765, 2.602757215499878, -19.251955032348633, -2.76511287689209, -7.063429832458496, 
33, 1255765554, -40.59782028198242, 70.86638641357422, -165.08984375, -9.820854187011719, -1.3254750967025757, 2.6350913047790527, -16.10666275024414, -4.1654486656188965, -2.759373664855957, 
34, 1255782221, -40.328369140625, 70.8746566772461, -164.62020874023438, -9.87243366241455, -1.4866033792495728, 2.6055123805999756, -10.887323379516602, -5.440101623535156, 3.016172170639038, 
35, 1255798888, -39.6791877746582, 70.92938995361328, -163.8585968017578, -9.874031066894531, -1.623863697052002, 2.5615334510803223, -4.391722679138184, -6.858892917633057, 9.264150619506836, 
36, 1255815555, -38.67533874511719, 71.02283477783203, -162.81991577148438, -9.794170379638672, -1.6793053150177002, 2.435746192932129, 1.1673448085784912, -8.275240898132324, 15.147372245788574, 
37, 1255832222, -37.42644500732422, 71.1398696899414, -161.55673217773438, -9.68227767944336, -1.8313010931015015, 2.2834062576293945, 3.35007643699646, -9.42725658416748, 19.659530639648438, 
38, 1255848889, -36.02777099609375, 71.26811981201172, -160.1629638671875, -9.642106056213379, -2.050971508026123, 2.101383924484253, 4.500654220581055, -9.954986572265625, 22.53554344177246, 
39, 1255865556, -34.57272720336914, 71.39518737792969, -158.73252868652344, -9.628374099731445, -2.301100969314575, 1.9616068601608276, 5.935545444488525, -9.801222801208496, 23.44325065612793, 
40, 1255882223, -33.1342887878418, 71.5099105834961, -157.34811401367188, -9.55636978149414, -2.4362587928771973, 1.8496174812316895, 7.864506244659424, -9.291975975036621, 22.696828842163086, 
41, 1255898890, -31.78365707397461, 71.61076354980469, -156.07601928710938, -9.431333541870117, -2.4796247482299805, 1.7653454542160034, 9.383047103881836, -8.28274154663086, 20.84312629699707, 
42, 1255915557, -30.54567527770996, 71.70330810546875, -154.9376983642578, -9.25440502166748, -2.508145809173584, 1.6492522954940796, 10.290772438049316, -7.011539936065674, 18.887292861938477, 
43, 1255932224, -29.48124122619629, 71.79468536376953, -153.98281860351562, -9.158926010131836, -2.47894024848938, 1.6266510486602783, 10.528120994567871, -5.04765510559082, 16.246498107910156, 
44, 1255948891, -28.600921630859375, 71.88860321044922, -153.2048797607422, -9.090911865234375, -2.4098527431488037, 1.6268763542175293, 9.69286060333252, -3.1258153915405273, 13.758955955505371, 
45, 1255965558, -27.964805603027344, 71.98582458496094, -152.65110778808594, -9.108563423156738, -2.377356767654419, 1.6892426013946533, 7.85738468170166, -0.8972517848014832, 10.467129707336426, 
46, 1255982225, -27.56300926208496, 72.08460235595703, -152.298583984375, -9.149327278137207, -2.2789230346679688, 1.8253474235534668, 5.5298285484313965, 0.9525430798530579, 7.3938188552856445, 
47, 1255998892, -27.445858001708984, 72.17799377441406, -152.18460083007812, -9.151376724243164, -2.220567226409912, 1.9139366149902344, 2.1453518867492676, 2.6705915927886963, 3.5421149730682373, 
48, 1256015559, -27.55694007873535, 72.26829528808594, -152.25344848632812, -9.226408958435059, -2.046863079071045, 2.0548548698425293, -1.1736762523651123, 3.9875452518463135, 0.7181096076965332, 
49, 1256032226, -27.87311553955078, 72.35265350341797, -152.46163940429688, -9.211568832397461, -1.8614096641540527, 2.1493990421295166, -5.433505535125732, 4.834763526916504, -1.5349823236465454, 
50, 1256048893, -28.310028076171875, 72.43267059326172, -152.7253875732422, -9.283227920532227, -1.6600604057312012, 2.3199448585510254, -9.644439697265625, 5.062294006347656, -2.343946933746338, 
51, 1256065560, -28.850709915161133, 72.50284576416016, -153.03289794921875, -9.297173500061035, -1.5703505277633667, 2.4355456829071045, -13.308034896850586, 4.979503154754639, -3.2160608768463135, 
52, 1256082227, -29.4213809967041, 72.56464385986328, -153.33609008789062, -9.29660415649414, -1.4777928590774536, 2.6072492599487305, -15.598878860473633, 4.5451765060424805, -3.2258198261260986, 
53, 1256098894, -29.978254318237305, 72.61405944824219, -153.6107177734375, -9.25076675415039, -1.4977306127548218, 2.720008373260498, -16.306394577026367, 3.7755143642425537, -3.105273962020874, 
54, 1256115561, -30.47877311706543, 72.6538314819336, -153.85690307617188, -9.245512008666992, -1.532763123512268, 2.8398118019104004, -14.668326377868652, 3.1299571990966797, -2.873657464981079, 
55, 1256132228, -30.90323829650879, 72.68140411376953, -154.0940399169922, -9.268593788146973, -1.6143962144851685, 2.88372802734375, -10.750972747802734, 2.542900323867798, -3.029881000518799, 
56, 1256148895, -31.219350814819336, 72.69479370117188, -154.3162841796875, -9.261181831359863, -1.6136528253555298, 2.9281933307647705, -5.097337245941162, 1.816497802734375, -3.2066078186035156, 
57, 1256165562, -31.40403175354004, 72.69416809082031, -154.4978485107422, -9.207645416259766, -1.4912723302841187, 2.925243377685547, 0.31161051988601685, 0.8312922120094299, -2.9634790420532227, 
58, 1256182229, -31.43809700012207, 72.68370056152344, -154.59634399414062, -9.124627113342285, -1.3552433252334595, 2.9160499572753906, 4.5931196212768555, -0.31594547629356384, -2.0122106075286865, 
59, 1256198896, -31.34770393371582, 72.66893005371094, -154.61065673828125, -9.11918830871582, -1.2843616008758545, 2.869709014892578, 7.175545692443848, -1.2248634099960327, -0.8828058242797852, 
60, 1256215563, -31.170242309570312, 72.65319061279297, -154.55824279785156, -9.227641105651855, -1.263197898864746, 2.825106143951416, 8.561052322387695, -1.7972944974899292, 0.07614016532897949, 
61, 1256232230, -30.939077377319336, 72.6305160522461, -154.46365356445312, -9.331486701965332, -1.2781187295913696, 2.820880889892578, 9.37574291229248, -2.465914487838745, 0.4694744944572449, 
62, 1256248897, -30.688091278076172, 72.60142517089844, -154.34649658203125, -9.289584159851074, -1.2452671527862549, 2.7960915565490723, 9.42064094543457, -2.90928316116333, 0.5542396903038025, 
63, 1256265564, -30.479480743408203, 72.56864166259766, -154.2578582763672, -9.183558464050293, -1.254084825515747, 2.732274293899536, 8.364795684814453, -2.801274299621582, 0.01661624200642109, 
64, 1256282231, -30.312414169311523, 72.53718566894531, -154.19654846191406, -9.192109107971191, -1.1805213689804077, 2.6946699619293213, 7.4087371826171875, -2.442004680633545, -0.38196223974227905, 
65, 1256298898, -30.185632705688477, 72.5073471069336, -154.1541290283203, -9.242392539978027, -1.1136420965194702, 2.6449036598205566, 6.137040615081787, -2.134882926940918, -0.672051727771759, 
66, 1256315565, -30.111804962158203, 72.47467041015625, -154.13050842285156, -9.231343269348145, -1.1120119094848633, 2.62864089012146, 4.105339050292969, -2.075230836868286, -1.1128208637237549, 
67, 1256332232, -30.084815979003906, 72.44297790527344, -154.11785888671875, -9.212422370910645, -1.0798636674880981, 2.604550838470459, 1.8880336284637451, -1.9038431644439697, -1.2827736139297485, 
68, 1256348899, -30.08742332458496, 72.41827392578125, -154.10391235351562, -9.211267471313477, -1.043241024017334, 2.5604474544525146, 0.01180104911327362, -1.5368770360946655, -1.0868107080459595, 
69, 1256365566, -30.098766326904297, 72.40513610839844, -154.08877563476562, -9.299034118652344, -1.1075602769851685, 2.5022311210632324, -0.6794408559799194, -0.948297381401062, -0.738286018371582, 
70, 1256382233, -30.102224349975586, 72.39842224121094, -154.07737731933594, -9.390885353088379, -1.2109057903289795, 2.5022623538970947, -0.05778225511312485, -0.5885415077209473, -0.6223502159118652, 
71, 1256398900, -30.097532272338867, 72.39513397216797, -154.08734130859375, -9.302830696105957, -1.2909799814224243, 2.453446626663208, 1.7210773229599, -0.20719392597675323, -0.8979684114456177, 
72, 1256415567, -30.08960723876953, 72.40621948242188, -154.1413116455078, -9.246713638305664, -1.3198940753936768, 2.4088027477264404, 4.391343116760254, 0.9254446625709534, -1.1589876413345337, 
73, 1256432234, -30.112682342529297, 72.42452239990234, -154.2698211669922, -9.324363708496094, -1.397663950920105, 2.3411130905151367, 6.919559955596924, 1.9942626953125, -2.147458791732788, 
74, 1256448901, -30.171321868896484, 72.44059753417969, -154.47532653808594, -9.443282127380371, -1.439763069152832, 2.338146448135376, 9.152079582214355, 2.555002212524414, -3.4045307636260986, 
75, 1256465568, -30.295202255249023, 72.45732879638672, -154.78355407714844, -9.49011516571045, -1.4484291076660156, 2.250044345855713, 11.289961814880371, 3.537275791168213, -5.024253845214844, 
76, 1256482235, -30.495285034179688, 72.48600006103516, -155.2036895751953, -9.634625434875488, -1.418675422668457, 2.1453135013580322, 12.991714477539062, 5.137009143829346, -6.348932266235352, 
77, 1256498902, -30.806020736694336, 72.52127075195312, -155.7487335205078, -9.78649616241455, -1.380609154701233, 2.083408832550049, 13.5858154296875, 6.6162214279174805, -8.072683334350586, 
78, 1256515569, -31.238183975219727, 72.56394958496094, -156.40487670898438, -9.916755676269531, -1.3013025522232056, 2.0470480918884277, 12.668432235717773, 8.016546249389648, -9.501527786254883, 
79, 1256532236, -31.79663848876953, 72.62039184570312, -157.15567016601562, -10.016136169433594, -1.2126182317733765, 1.946704387664795, 10.724018096923828, 9.651253700256348, -10.489307403564453, 
80, 1256548903, -32.46529769897461, 72.69393157958984, -157.98654174804688, -9.995007514953613, -1.2551113367080688, 1.8454242944717407, 8.731513977050781, 11.305848121643066, -11.038919448852539, 
81, 1256565570, -33.19884490966797, 72.79146575927734, -158.87921142578125, -9.78657054901123, -1.2781974077224731, 1.7874506711959839, 8.475886344909668, 13.148968696594238, -11.021581649780273, 
82, 1256582237, -33.98712921142578, 72.9218978881836, -159.81576538085938, -9.520105361938477, -1.1810632944107056, 1.7053403854370117, 8.065353393554688, 15.300670623779297, -10.408745765686035, 
83, 1256598904, -34.86776351928711, 73.0887451171875, -160.8171844482422, -9.389989852905273, -1.1278603076934814, 1.500899076461792, 6.342296600341797, 17.760570526123047, -9.80115032196045, 
84, 1256615571, -35.8496208190918, 73.29635620117188, -161.90992736816406, -9.472895622253418, -1.2106852531433105, 1.2468081712722778, 5.457058906555176, 20.621177673339844, -9.223023414611816, 
85, 1256632238, -36.92323303222656, 73.53803253173828, -163.1170654296875, -9.515264511108398, -1.3574367761611938, 1.0374521017074585, 6.6894707679748535, 23.368743896484375, -9.040383338928223, 
86, 1256648905, -38.11993408203125, 73.79805755615234, -164.47686767578125, -9.392293930053711, -1.4292349815368652, 1.033370852470398, 8.315950393676758, 25.708843231201172, -9.727770805358887, 
87, 1256665572, -39.49534225463867, 74.07096099853516, -166.03079223632812, -9.138472557067871, -1.306214451789856, 0.9826034307479858, 8.62586784362793, 28.15903663635254, -10.814385414123535, 
88, 1256682239, -41.201393127441406, 74.35248565673828, -167.88580322265625, -9.184446334838867, -1.0724010467529297, 0.7617227435112, 6.462681293487549, 31.67104148864746, -13.150640487670898, 
89, 1256698906, -43.25941848754883, 74.63008880615234, -170.03366088867188, -9.49902629852295, -0.8739308714866638, 0.7153890132904053, 2.11183500289917, 34.5457878112793, -15.285772323608398, 
90, 1256715573, -45.645206451416016, 74.8706283569336, -172.4055938720703, -9.590433120727539, -0.7955043911933899, 0.9361783862113953, -4.424554347991943, 35.49085235595703, -17.632661819458008, 
91, 1256732240, -48.182098388671875, 75.08086395263672, -174.85630798339844, -9.454922676086426, -0.7550886869430542, 1.3237875699996948, -8.72627067565918, 35.39120101928711, -17.914648056030273, 
92, 1256748907, -50.7572135925293, 75.27112579345703, -177.35629272460938, -9.217079162597656, -0.7112743854522705, 1.6264232397079468, -7.956913471221924, 35.539794921875, -17.426406860351562, 
93, 1256765574, -53.323333740234375, 75.45581817626953, -179.90554809570312, -9.046947479248047, -0.49989020824432373, 1.7961664199829102, -4.45217752456665, 36.26833724975586, -16.272619247436523, 
94, 1256782241, -55.91822814941406, 75.63229370117188, 177.50755310058594, -9.026164054870605, -0.16084784269332886, 2.110927104949951, -3.879103422164917, 36.76162338256836, -15.113330841064453, 
95, 1256798908, -58.28824234008789, 75.79415893554688, 175.1831512451172, -9.151039123535156, 0.07858633995056152, 2.9665279388427734, -5.545469284057617, 33.30166244506836, -11.965655326843262, 
96, 1256815575, -60.173316955566406, 75.93896484375, 173.33433532714844, -9.111748695373535, 0.22833804786205292, 3.69084095954895, -5.310250759124756, 26.739423751831055, -7.798120975494385, 
97, 1256832242, -61.52534103393555, 76.0792465209961, 172.0334930419922, -8.826469421386719, 0.6135789752006531, 4.165984153747559, -5.220797538757324, 19.819204330444336, -3.3986947536468506, 
98, 1256848909, -62.305355072021484, 76.21031188964844, 171.42539978027344, -8.742866516113281, 1.4068162441253662, 4.821878433227539, -11.282851219177246, 10.90829849243164, 1.0937591791152954, 
99, 1256865576, -62.580169677734375, 76.33367919921875, 171.64292907714844, -9.101665496826172, 2.331378936767578, 5.71771764755249, -29.167598724365234, 0.4871101975440979, 6.029599666595459, 
100, 1256882243, -62.22697830200195, 76.44512939453125, 172.96990966796875, -10.0088529586792, 2.924241065979004, 6.67016077041626, -56.314083099365234, -13.309585571289062, 12.340280532836914, 
101, 1256898910, -60.91008377075195, 76.51007080078125, 175.70916748046875, -11.271618843078613, 2.984164237976074, 7.494795322418213, -81.05757141113281, -31.27372169494629, 19.119102478027344, 
102, 1256915577, -58.421810150146484, 76.50602722167969, 179.91229248046875, -12.122072219848633, 2.6971240043640137, 7.905621528625488, -96.37000274658203, -49.7000846862793, 26.56754493713379, 
103, 1256932244, -54.5837287902832, 76.42253875732422, -174.4263153076172, -12.15124797821045, 2.448981761932373, 7.965778350830078, -100.59013366699219, -67.28680419921875, 36.47174835205078, 
104, 1256948911, -49.3856086730957, 76.23487091064453, -167.36831665039062, -11.839896202087402, 2.478872776031494, 7.777820587158203, -100.41011047363281, -83.43314361572266, 49.301727294921875, 
105, 1256965578, -42.63008117675781, 75.89704132080078, -158.74964904785156, -11.97962474822998, 2.8942816257476807, 7.637276649475098, -99.15890502929688, -101.015869140625, 68.4854507446289, 
106, 1256982245, -34.32957077026367, 75.24471282958984, -148.63949584960938, -12.740092277526855, 2.4446585178375244, 7.776683807373047, -92.99585723876953, -121.53418731689453, 90.54307556152344, 
107, 1256998912, -25.213979721069336, 74.12285614013672, -137.92715454101562, -13.61074161529541, 1.9891554117202759, 7.234151363372803, -77.15181732177734, -138.98597717285156, 110.55245971679688, 
108, 1257015579, -16.175582885742188, 72.44202423095703, -127.5698471069336, -14.309860229492188, 1.9040894508361816, 6.251630783081055, -57.49528884887695, -153.2891082763672, 128.2860870361328, 
109, 1257032246, -7.882943630218506, 70.2371597290039, -118.30181121826172, -14.990914344787598, 1.6400407552719116, 5.326798915863037, -33.908321380615234, -161.93890380859375, 143.1697235107422, 
110, 1257048913, -0.5803157091140747, 67.61579895019531, -110.25698852539062, -15.666298866271973, 1.961890459060669, 4.649232864379883, -14.002190589904785, -164.94503784179688, 157.19619750976562, 
111, 1257065580, 5.892470836639404, 64.65583038330078, -103.1512451171875, -16.244220733642578, 2.9870753288269043, 4.10644006729126, -3.2948923110961914, -164.84869384765625, 176.1981201171875, 
112, 1257082247, 11.674914360046387, 61.39386749267578, -96.68861389160156, -16.481210708618164, 3.8984408378601074, 3.4126992225646973, -0.422029048204422, -162.22462463378906, 199.314697265625, 
113, 1257098914, 16.74858283996582, 57.84956359863281, -90.73372650146484, -16.680126190185547, 4.246371746063232, 2.813345432281494, -5.650905132293701, -157.77037048339844, 222.9148406982422, 
114, 1257115581, 21.16573715209961, 53.988529205322266, -85.15410614013672, -17.252065658569336, 4.53836727142334, 2.764909029006958, -14.1255464553833, -154.5137481689453, 248.24281311035156, 
115, 1257132248, 25.022424697875977, 49.79179382324219, -79.8766098022461, -17.73390769958496, 4.67957067489624, 2.5682616233825684, -19.672985076904297, -151.75482177734375, 274.18743896484375, 
116, 1257148915, 28.443992614746094, 45.270263671875, -74.92139434814453, -17.409053802490234, 4.009967803955078, 2.4807956218719482, -16.001882553100586, -149.26272583007812, 297.16015625, 
117, 1257165582, 31.64863395690918, 40.5147705078125, -70.309814453125, -16.626684188842773, 3.473418951034546, 2.3082118034362793, 1.9330294132232666, -143.28369140625, 314.4752197265625, 
118, 1257182249, 34.77202224731445, 35.60266876220703, -66.05409240722656, -15.682289123535156, 2.9611291885375977, 2.226223945617676, 27.947723388671875, -134.81178283691406, 326.1605224609375, 
119, 1257198916, 37.720176696777344, 30.619789123535156, -62.2061653137207, -14.15900993347168, 2.704989194869995, 2.319188117980957, 48.72288131713867, -125.6680679321289, 329.7122802734375, 
120, 1257215583, 40.39863967895508, 25.638160705566406, -58.73158264160156, -12.515511512756348, 3.024226188659668, 2.2065892219543457, 60.38755416870117, -115.61843872070312, 328.57421875, 
121, 1257232250, 42.63152313232422, 20.766918182373047, -55.59051513671875, -10.869780540466309, 3.430058002471924, 2.100470781326294, 57.690181732177734, -103.82653045654297, 321.37939453125, 
122, 1257248917, 44.268367767333984, 16.094757080078125, -52.73777389526367, -9.257412910461426, 3.6875319480895996, 1.8666167259216309, 42.043418884277344, -91.95919036865234, 309.0755310058594, 
123, 1257265584, 45.34508514404297, 11.677794456481934, -50.115997314453125, -7.81674861907959, 3.5841150283813477, 1.8444496393203735, 24.752883911132812, -80.78912353515625, 293.9168395996094, 
124, 1257282251, 45.916133880615234, 7.549988746643066, -47.71736145019531, -6.315975189208984, 2.880537986755371, 2.3166697025299072, 8.085079193115234, -72.32669830322266, 275.4499206542969, 
125, 1257298918, 46.06108856201172, 3.745718002319336, -45.51756286621094, -5.038196563720703, 2.4697818756103516, 2.670043468475342, -6.42897891998291, -64.82536315917969, 254.92410278320312, 
126, 1257315585, 45.840145111083984, 0.3101945221424103, -43.419395446777344, -3.8262064456939697, 2.4344332218170166, 2.3801491260528564, -19.808086395263672, -53.67490005493164, 235.39419555664062, 
127, 1257332252, 45.2884521484375, -2.7517483234405518, -41.401344299316406, -2.766310691833496, 1.8449772596359253, 2.6663248538970947, -32.593475341796875, -43.01768112182617, 215.90182495117188, 
128, 1257348919, 44.61085510253906, -5.426752090454102, -39.53221130371094, -1.9270278215408325, 0.8074769973754883, 3.5124216079711914, -34.669212341308594, -35.425289154052734, 192.6772003173828, 
129, 1257365586, 44.12879943847656, -7.764122009277344, -37.81846237182617, -1.3737014532089233, 0.45646920800209045, 4.270155906677246, -18.984472274780273, -29.699790954589844, 171.30474853515625, 
130, 1257382253, 44.06279373168945, -9.710665702819824, -36.17214584350586, -0.6916971802711487, 0.5108597874641418, 4.086885452270508, 9.356167793273926, -16.821392059326172, 151.68075561523438, 
131, 1257398920, 44.424888610839844, -11.251068115234375, -34.600765228271484, -0.2143203169107437, 0.7787788510322571, 4.574792861938477, 37.35387420654297, -2.3979735374450684, 131.2346649169922, 
132, 1257415587, 45.176292419433594, -12.427477836608887, -33.146217346191406, 0.34057146310806274, 1.8121440410614014, 4.793260097503662, 61.642616271972656, 9.249866485595703, 110.70220184326172, 
133, 1257432254, 46.208438873291016, -13.31356143951416, -31.785167694091797, 0.5350186228752136, 2.388042688369751, 5.260408878326416, 78.90813446044922, 19.007831573486328, 94.02461242675781, 
134, 1257448921, 47.593727111816406, -13.97838020324707, -30.5653018951416, 0.35237738490104675, 2.970512628555298, 6.108323574066162, 99.30823516845703, 23.879148483276367, 78.11062622070312, 
135, 1257465588, 49.22509765625, -14.488897323608398, -29.466171264648438, 0.11990194022655487, 4.6639018058776855, 6.429268836975098, 113.17162322998047, 26.68027687072754, 65.76669311523438, 
136, 1257482255, 50.67864227294922, -14.883214950561523, -28.53107452392578, 0.2830456495285034, 5.997964382171631, 6.276844024658203, 100.62069702148438, 25.511615753173828, 53.5360107421875, 
137, 1257498922, 51.67169952392578, -15.205925941467285, -27.79918098449707, 0.5726978778839111, 6.953451156616211, 6.012260437011719, 70.2308578491211, 20.064802169799805, 42.269344329833984, 
138, 1257515589, 52.29222106933594, -15.484088897705078, -27.215673446655273, 1.1294840574264526, 6.999148368835449, 5.448968410491943, 45.775325775146484, 15.460298538208008, 34.63180923461914, 
139, 1257532256, 52.829925537109375, -15.700834274291992, -26.75324249267578, 1.5224251747131348, 6.5479736328125, 5.168566703796387, 39.01042938232422, 12.445457458496094, 27.324743270874023, 
140, 1257548923, 53.45216369628906, -15.831084251403809, -26.335830688476562, 1.740535855293274, 6.468835830688477, 4.712236404418945, 43.44858932495117, 13.734777450561523, 21.49869728088379, 
141, 1257565590, 53.894161224365234, -15.826597213745117, -25.977760314941406, 1.3142693042755127, 7.134486198425293, 4.216224193572998, 31.696361541748047, 15.963859558105469, 12.836701393127441, 
142, 1257582257, 53.24995040893555, -15.5809965133667, -25.800161361694336, 0.7780883312225342, 7.118797779083252, 3.309422254562378, -36.48075485229492, 16.13801383972168, -4.905519008636475, 
143, 1257598924, 52.02890396118164, -15.220101356506348, -25.595949172973633, 0.6008959412574768, 5.632213592529297, 2.285649061203003, -70.78711700439453, 21.610565185546875, -9.119344711303711, 
144, 1257615591, 50.484901428222656, -14.462056159973145, -25.398670196533203, 0.8622429370880127, 4.186554431915283, 2.744572162628174, -90.4505615234375, 36.41068649291992, -27.354610443115234, 
145, 1257632258, 48.85765075683594, -13.445221900939941, -25.281951904296875, 1.4783592224121094, 3.750647783279419, 4.435661792755127, -96.79814910888672, 43.630706787109375, -41.16914367675781, 
146, 1257648925, 48.131805419921875, -12.496565818786621, -25.18654441833496, 2.9117136001586914, 2.7167487144470215, 7.472382545471191, -43.05622863769531, 40.835166931152344, -38.03742218017578, 
147, 1257665592, 48.653377532958984, -11.461313247680664, -25.113393783569336, 4.086869239807129, 4.50604248046875, 9.03853702545166, 31.62034797668457, 43.442115783691406, -42.828853607177734, 
148, 1257682259, 49.93267059326172, -10.561619758605957, -25.003005981445312, 3.4519262313842773, 8.315698623657227, 10.254676818847656, 77.635498046875, 39.224876403808594, -36.06660461425781, 
149, 1257698926, 51.29735565185547, -9.983240127563477, -24.8944149017334, 3.955876111984253, 10.61912727355957, 10.94192123413086, 82.7802734375, 26.137205123901367, -22.20725440979004, 
150, 1257715593, 52.28702163696289, -9.723618507385254, -24.915966033935547, 5.003902912139893, 11.5747652053833, 11.615200996398926, 58.98748779296875, 7.870872974395752, -12.558191299438477, 
151, 1257732260, 52.655357360839844, -9.781917572021484, -25.114879608154297, 5.319524765014648, 11.325920104980469, 11.93907642364502, 20.013853073120117, -12.130959510803223, -4.057424545288086, 
152, 1257748927, 52.40304946899414, -10.101418495178223, -25.470144271850586, 4.782075881958008, 10.719197273254395, 11.656770706176758, -18.753332138061523, -28.907976150512695, 2.610072612762451, 
153, 1257765594, 51.63333511352539, -10.568901062011719, -25.93299102783203, 4.138238430023193, 10.026676177978516, 11.008934020996094, -50.96254348754883, -39.308353424072266, 5.316954135894775, 
154, 1257782261, 50.413963317871094, -11.100234031677246, -26.437044143676758, 3.5926737785339355, 9.356549263000488, 10.127476692199707, -78.52159118652344, -43.60780334472656, 6.007565975189209, 
155, 1257798928, 48.9481086730957, -11.656464576721191, -26.966949462890625, 3.086113929748535, 7.694490909576416, 9.820599555969238, -93.8076400756836, -45.78850173950195, 5.100862503051758, 
156, 1257815595, 47.71381378173828, -12.152264595031738, -27.538358688354492, 2.7662055492401123, 5.627513408660889, 9.615446090698242, -80.60127258300781, -45.236358642578125, -0.33102211356163025, 
157, 1257832262, 46.90721893310547, -12.49948501586914, -28.222126007080078, 2.39032244682312, 4.503496170043945, 9.112312316894531, -56.47753143310547, -43.948604583740234, -12.186384201049805, 
158, 1257848929, 46.559165954589844, -12.648093223571777, -29.1224422454834, 2.2221901416778564, 2.9286961555480957, 8.009076118469238, -31.812122344970703, -44.82512664794922, -30.03412437438965, 
159, 1257865596, 46.695316314697266, -12.446067810058594, -30.278932571411133, 1.9011540412902832, 1.9248816967010498, 6.809789180755615, -5.920047283172607, -41.179039001464844, -55.79375457763672, 
160, 1257882263, 47.08259582519531, -11.927919387817383, -31.736980438232422, 1.0728470087051392, 1.6446346044540405, 6.239146709442139, 5.893939018249512, -41.381473541259766, -81.67658996582031, 
161, 1257898930, 47.7164192199707, -11.112735748291016, -33.55111312866211, 0.6398661732673645, 0.397314190864563, 5.8401665687561035, 17.539609909057617, -45.54572677612305, -108.77526092529297, 
162, 1257915597, 48.81486129760742, -9.953377723693848, -35.71283721923828, 0.3423396348953247, -0.5546854734420776, 5.603196620941162, 43.58583450317383, -48.928218841552734, -137.41075134277344, 
163, 1257932264, 50.34856033325195, -8.396628379821777, -38.18994903564453, 0.01951063796877861, -0.20106156170368195, 4.869499683380127, 69.86090850830078, -51.132110595703125, -166.89686584472656, 
164, 1257948931, 52.147422790527344, -6.4220194816589355, -40.89786911010742, -0.7203367948532104, 0.5173162817955017, 3.8067831993103027, 88.62831115722656, -51.37879943847656, -193.92323303222656, 
165, 1257965598, 54.10557556152344, -4.046002388000488, -43.812129974365234, -1.3491783142089844, 0.9297049045562744, 3.590927839279175, 103.23722076416016, -53.54872512817383, -219.1834716796875, 
166, 1257982265, 56.327056884765625, -1.2410262823104858, -46.85518264770508, -2.3119282722473145, 2.1220076084136963, 3.944600820541382, 126.59660339355469, -53.494773864746094, -242.88433837890625, 
167, 1257998932, 58.64556121826172, 1.8606300354003906, -49.96493911743164, -3.991811752319336, 5.891011714935303, 4.004613399505615, 141.86756896972656, -56.92704391479492, -257.73394775390625, 
168, 1258015599, 60.667633056640625, 4.820050239562988, -52.937747955322266, -6.572732925415039, 13.780651092529297, 2.7693638801574707, 133.4509735107422, -63.53010559082031, -243.536376953125, 
169, 1258032266, 61.88279342651367, 6.802468299865723, -55.720706939697266, -10.195302963256836, 20.11530303955078, 5.831147193908691, 91.39209747314453, -88.11344146728516, -184.22093200683594, 
170, 1258048933, 62.48268127441406, 7.325070381164551, -58.360626220703125, -12.778067588806152, 22.157203674316406, 9.378171920776367, 56.928260803222656, -124.12654876708984, -100.79206085205078, 
171, 1258065600, 63.148868560791016, 6.568187236785889, -60.77711486816406, -10.993315696716309, 21.491596221923828, 6.826515197753906, 58.975807189941406, -148.66561889648438, -24.60205841064453, 
172, 1258082267, 64.68951416015625, 4.800792217254639, -62.602535247802734, -6.747612953186035, 22.133651733398438, 4.450618267059326, 104.71277618408203, -144.57659912109375, 48.44857406616211, 
173, 1258098934, 66.8533706665039, 2.0306544303894043, -63.851375579833984, -2.532170057296753, 22.503358840942383, 3.695521354675293, 135.56857299804688, -136.61724853515625, 122.15162658691406, 
174, 1258115601, 69.03187561035156, -1.4600155353546143, -64.72797393798828, 0.3012104630470276, 22.16741180419922, 2.784191846847534, 132.05206298828125, -127.66952514648438, 175.6267852783203, 
175, 1258132268, 70.8246841430664, -5.677677154541016, -65.42222595214844, 0.36442598700523376, 20.57299041748047, 2.0823111534118652, 105.84345245361328, -126.21480560302734, 224.59567260742188, 
176, 1258148935, 72.24785614013672, -10.51701831817627, -65.9994888305664, -0.46446529030799866, 17.465967178344727, 1.5180655717849731, 81.20333099365234, -124.85613250732422, 265.7206726074219, 
177, 1258165602, 73.3975601196289, -15.759604454040527, -66.49008178710938, -0.6124565005302429, 15.31585693359375, 0.9018672108650208, 62.866275787353516, -120.7229232788086, 293.3372802734375, 
178, 1258182269, 74.1806640625, -21.4010009765625, -66.90109252929688, -1.1932497024536133, 14.97374439239502, 0.5667200088500977, 39.620426177978516, -117.44844055175781, 319.95721435546875, 
179, 1258198936, 74.37031555175781, -27.32025718688965, -67.35717010498047, -1.3170957565307617, 12.275959968566895, 0.3112589120864868, 0.5414663553237915, -120.84751892089844, 336.83563232421875, 
180, 1258215603, 74.07197570800781, -33.3441276550293, -67.80538940429688, -0.4396154582500458, 9.128778457641602, 0.03659123554825783, -31.044599533081055, -121.3312759399414, 343.5168762207031, 
181, 1258232270, 73.60881805419922, -39.29049301147461, -68.24666595458984, 0.9500956535339355, 5.433727264404297, 0.6154096722602844, -43.05237579345703, -120.60568237304688, 338.97412109375, 
182, 1258248937, 73.45336151123047, -45.16101837158203, -68.62962341308594, 1.2978700399398804, 4.836176872253418, 0.9335150718688965, -24.367219924926758, -117.07194519042969, 335.26348876953125, 
183, 1258265604, 73.49205780029297, -51.027748107910156, -68.92517852783203, 0.746124267578125, 5.2092814445495605, 0.44258418679237366, -10.47370719909668, -112.46182250976562, 336.4758605957031, 
184, 1258282271, 73.36930847167969, -56.80376052856445, -69.1614761352539, 0.5478556156158447, 3.103438138961792, 0.05810557305812836, -18.413841247558594, -107.88821411132812, 332.2986145019531, 
185, 1258298938, 73.13523864746094, -62.22760772705078, -69.40003967285156, 0.9789086580276489, 0.2591302692890167, -0.18171164393424988, -25.979589462280273, -101.84654235839844, 312.11181640625, 
186, 1258315605, 72.97569274902344, -67.3490982055664, -69.56999206542969, 1.2138373851776123, -0.43024376034736633, -0.11059572547674179, -18.422609329223633, -94.85850524902344, 295.19573974609375, 
187, 1258332272, 72.90021514892578, -72.28172302246094, -69.56757354736328, 0.8749607801437378, 0.23937174677848816, -0.054211631417274475, -4.039284706115723, -87.93656158447266, 285.37225341796875, 
188, 1258348939, 72.7666244506836, -76.86666870117188, -69.49571990966797, 1.4742193222045898, -0.6237141489982605, -0.2985462546348572, -3.5233895778656006, -81.26036834716797, 265.5644836425781, 
189, 1258365606, 71.95953369140625, -80.9896240234375, -68.75047302246094, 2.034837484359741, -1.4007288217544556, -1.027192234992981, -4.2106122970581055, -67.9125747680664, 240.6438446044922, 
190, 1258382273, 68.38574981689453, -84.72232818603516, -65.0841064453125, 2.120800733566284, -1.9977983236312866, -2.2833478450775146, 4.21993350982666, -51.27899932861328, 222.0302276611328, 
191, 1258398940, 49.91307830810547, -87.98899841308594, -46.171722412109375, 2.1212031841278076, -1.5082828998565674, -2.743175745010376, 24.76587677001953, -38.44645690917969, 204.81898498535156, 
192, 1258415607, -63.99414825439453, -88.22469329833984, 68.30902862548828, 3.7567238807678223, -0.463786244392395, -1.8408714532852173, 32.84291076660156, -31.82756805419922, 190.5888214111328, 
193, 1258432274, -83.96836853027344, -85.52499389648438, 88.68465423583984, 7.3128838539123535, -1.1754324436187744, -1.792061448097229, 22.73076820373535, -20.465274810791016, 173.35887145996094, 
194, 1258448941, -85.57450866699219, -82.94706726074219, 90.57635498046875, 9.094735145568848, -3.955530881881714, -0.6097594499588013, 16.65228843688965, 2.112541437149048, 156.8052520751953, 
195, 1258465608, -86.04674530029297, -80.95760345458984, 90.85529327392578, 11.132187843322754, -7.1168670654296875, 1.8416826725006104, -11.707279205322266, 5.81896448135376, 120.80282592773438, 
196, 1258482275, -87.7886962890625, -79.74640655517578, 91.82762908935547, 13.149942398071289, -10.29019546508789, 3.786139488220215, -46.94453430175781, -6.4297332763671875, 74.3960189819336, 
197, 1258498942, -89.94223022460938, -79.09512329101562, 93.1841049194336, 12.809357643127441, -13.249506950378418, 4.222474575042725, -49.13345718383789, -14.791319847106934, 40.308204650878906, 
198, 1258515609, -92.80523681640625, -79.27483367919922, 95.62771606445312, 12.003337860107422, -11.624987602233887, 3.949050188064575, -27.665523529052734, -27.888547897338867, -10.975791931152344, 
199, 1258532276, -96.43507385253906, -79.86273193359375, 99.22097778320312, 12.760945320129395, -7.87874174118042, 2.807575225830078, -5.627755641937256, -36.72955322265625, -38.225990295410156, 
200, 1258548943, -100.00467681884766, -80.46294403076172, 103.09300231933594, 12.901124954223633, -4.116028308868408, 0.9975441098213196, 14.875935554504395, -34.82841110229492, -41.454673767089844, 
201, 1258565610, -103.14708709716797, -80.98594665527344, 106.4487533569336, 12.248547554016113, -0.2759326994419098, -1.1479628086090088, 10.322541236877441, -26.202054977416992, -37.47474670410156, 
202, 1258582277, -105.69642639160156, -81.27469635009766, 108.9076919555664, 11.632955551147461, 1.4110679626464844, -2.390803337097168, -7.033679485321045, -18.408212661743164, -22.597270965576172, 
203, 1258598944, -107.34304809570312, -81.32300567626953, 110.20716857910156, 11.611330032348633, 1.2944364547729492, -2.911282777786255, -21.57350730895996, -11.13688850402832, -6.1692681312561035, 
204, 1258615611, -107.5111312866211, -81.18097686767578, 110.0433578491211, 10.970589637756348, -0.036262623965740204, -2.349215507507324, -19.65492057800293, -1.7261580228805542, 8.651196479797363, 
205, 1258632278, -106.77571868896484, -81.02066802978516, 109.12112426757812, 10.203630447387695, -1.301493525505066, -1.2879838943481445, -10.407562255859375, 4.792043685913086, 11.841266632080078, 
206, 1258648945, -105.75646209716797, -80.8907699584961, 107.98867797851562, 9.60743522644043, -2.1806654930114746, -0.44651564955711365, -5.818274021148682, 7.547125816345215, 10.602185249328613, 
207, 1258665612, -104.78015899658203, -80.87374114990234, 106.97444152832031, 9.368252754211426, -3.1116878986358643, -0.06036096811294556, -1.3820232152938843, 8.526681900024414, 3.6149966716766357, 
208, 1258682279, -104.18302917480469, -81.05196380615234, 106.42268371582031, 9.030423164367676, -3.596571683883667, 0.46244728565216064, 3.255215883255005, 7.220063209533691, -9.03786849975586, 
209, 1258698946, -104.21900177001953, -81.48149871826172, 106.45706176757812, 9.012969970703125, -3.9249305725097656, 0.5487784743309021, 0.0035281574819236994, 5.534615993499756, -25.13351821899414, 
210, 1258715613, -105.29194641113281, -82.24189758300781, 107.42459869384766, 9.152970314025879, -4.759406089782715, 0.5799056887626648, -6.786361217498779, 3.1973090171813965, -46.37821578979492, 
211, 1258732280, -107.8319091796875, -83.43019104003906, 109.81990051269531, 9.306434631347656, -5.35050106048584, 0.515764057636261, -9.666877746582031, 2.6968905925750732, -73.76448822021484, 
212, 1258748947, -113.232421875, -85.11640930175781, 114.99337005615234, 9.625326156616211, -5.751051902770996, 0.1401331126689911, -15.012255668640137, 6.043727874755859, -106.00520324707031, 
213, 1258765614, -128.8051300048828, -87.27272033691406, 130.19009399414062, 9.708903312683105, -5.780125141143799, -0.008152557536959648, -24.2646484375, 14.026083946228027, -141.69834899902344, 
214, 1258782281, 146.76283264160156, -88.5217056274414, -146.0042724609375, 9.448027610778809, -4.968800067901611, -0.2848779261112213, -39.56119155883789, 28.52988052368164, -176.08433532714844, 
215, 1258798948, 95.35502624511719, -85.69170379638672, -95.5914077758789, 8.659829139709473, -3.9853672981262207, -0.266147643327713, -62.142024993896484, 47.20819091796875, -208.991943359375, 
216, 1258815615, 84.1596908569336, -81.73478698730469, -85.79489135742188, 7.308091163635254, -3.006645441055298, 0.8220099210739136, -86.96473693847656, 65.22760009765625, -237.58139038085938, 
217, 1258832282, 78.53485870361328, -77.22039031982422, -81.97761535644531, 6.224222183227539, -2.2436540126800537, 1.2361868619918823, -111.9549331665039, 82.07699584960938, -262.7745361328125, 
218, 1258848949, 74.3221206665039, -72.21466064453125, -79.51252746582031, 5.248279571533203, -1.8270293474197388, 1.4868905544281006, -109.74300384521484, 108.4252700805664, -284.2874755859375, 
219, 1258865616, 70.75033569335938, -66.86311340332031, -77.39848327636719, 4.2474045753479, -0.05479244887828827, 1.2172635793685913, -95.08384704589844, 138.76876831054688, -294.5512390136719, 
220, 1258882283, 67.54113006591797, -61.183197021484375, -75.23822784423828, 3.266721725463867, 1.3245487213134766, -0.5714871883392334, -75.58982849121094, 174.52822875976562, -299.83526611328125, 
221, 1258898950, 64.58783721923828, -55.18545150756836, -72.9843521118164, 1.2330046892166138, 3.4393742084503174, -1.5384055376052856, -61.80840301513672, 211.3917694091797, -301.5479431152344, 
222, 1258915617, 61.65254592895508, -49.07306671142578, -71.00971221923828, -0.8136611580848694, 5.708159923553467, 0.14235344529151917, -82.11272430419922, 230.9764862060547, -295.70587158203125, 
223, 1258932284, 58.680503845214844, -42.84986114501953, -69.55703735351562, -1.6535803079605103, 5.314027786254883, 0.8680752515792847, -115.1618423461914, 238.57968139648438, -295.0347595214844, 
224, 1258948951, 56.09183120727539, -36.38571548461914, -68.46795654296875, -2.078057289123535, 3.6506659984588623, 0.0045591723173856735, -113.14059448242188, 251.6459503173828, -300.6003112792969, 
225, 1258965618, 54.29966735839844, -29.73916244506836, -67.50850677490234, -3.965355157852173, 5.511125087738037, 1.0068159103393555, -75.65162658691406, 267.3916931152344, -300.7671813964844, 
226, 1258982285, 52.65388870239258, -23.199031829833984, -66.87028503417969, -5.741720199584961, 7.8937668800354, 3.901216506958008, -81.22193908691406, 261.11669921875, -295.52459716796875, 
227, 1258998952, 50.516090393066406, -17.00874137878418, -66.74811553955078, -5.916565895080566, 7.754561901092529, 6.49700927734375, -125.24604034423828, 235.97689819335938, -286.951904296875, 
228, 1259015619, 48.112464904785156, -11.208525657653809, -67.12708282470703, -5.03467321395874, 5.425631999969482, 7.254897594451904, -149.1927032470703, 209.7001190185547, -278.12115478515625, 
229, 1259032286, 46.451541900634766, -5.614310264587402, -67.66792297363281, -4.080368995666504, 3.9782333374023438, 6.33365535736084, -103.78559112548828, 203.46075439453125, -267.9265441894531, 
230, 1259048953, 46.06768035888672, 0.053130343556404114, -68.1785659790039, -4.189399719238281, 4.320124626159668, 5.38373327255249, -23.895038604736328, 212.20700073242188, -266.1472473144531, 
231, 1259065620, 46.49052429199219, 5.794046878814697, -68.65228271484375, -5.5062079429626465, 7.095424652099609, 4.925339698791504, 27.435224533081055, 216.68089294433594, -267.66900634765625, 
232, 1259082287, 46.729766845703125, 11.482295036315918, -69.15205383300781, -6.427435398101807, 8.570699691772461, 5.0169525146484375, 19.455202102661133, 211.9394989013672, -267.2830505371094, 
233, 1259098954, 46.46144485473633, 17.09052848815918, -69.65396118164062, -7.021088600158691, 9.242829322814941, 4.8382134437561035, -8.102738380432129, 208.93934631347656, -263.24078369140625, 
234, 1259115621, 45.63317108154297, 22.600996017456055, -70.16105651855469, -7.677855491638184, 8.696228981018066, 5.340036869049072, -38.84601974487305, 207.68190002441406, -256.4738464355469, 
235, 1259132288, 44.13928985595703, 27.940034866333008, -70.81900787353516, -8.144874572753906, 7.812288284301758, 6.1674885749816895, -72.29014587402344, 200.4603271484375, -249.850341796875, 
236, 1259148955, 41.829376220703125, 33.12083053588867, -71.81092834472656, -8.508193969726562, 6.771606922149658, 6.6383748054504395, -107.87116241455078, 191.01870727539062, -247.86756896972656, 
237, 1259165622, 39.016300201416016, 38.12063980102539, -73.13031768798828, -9.537671089172363, 5.992301940917969, 6.697103023529053, -122.18244171142578, 185.10720825195312, -241.90478515625, 
238, 1259182289, 35.976783752441406, 42.95423889160156, -74.77748107910156, -11.069219589233398, 5.109580993652344, 7.224185943603516, -117.64352416992188, 182.71759033203125, -234.49020385742188, 
239, 1259198956, 32.5479621887207, 47.52254104614258, -76.96704864501953, -12.086545944213867, 4.3065505027771, 7.823643207550049, -111.93354797363281, 172.66732788085938, -229.0802001953125, 
240, 1259215623, 28.30739974975586, 51.67790222167969, -80.00114440917969, -12.343996047973633, 3.72168231010437, 8.060088157653809, -115.24243927001953, 153.3258819580078, -226.27249145507812, 
241, 1259232290, 23.115690231323242, 55.34552001953125, -83.95066833496094, -12.38908863067627, 3.0097668170928955, 7.714339256286621, -120.37865447998047, 135.1350860595703, -220.6851348876953, 
242, 1259248957, 17.18494987487793, 58.54750061035156, -88.77713012695312, -12.65272045135498, 1.7871062755584717, 7.277641773223877, -112.47935485839844, 123.87433624267578, -212.7206268310547, 
243, 1259265624, 10.770845413208008, 61.34065246582031, -94.5681381225586, -13.11021614074707, 0.595798909664154, 6.966226577758789, -83.41962432861328, 118.44406127929688, -207.60189819335938, 
244, 1259282291, 4.130070686340332, 63.71949005126953, -101.23583221435547, -13.921048164367676, 0.6622788310050964, 6.649127960205078, -42.774452209472656, 115.40470886230469, -199.71600341796875, 
245, 1259298958, -2.758235454559326, 65.61518859863281, -108.5760726928711, -14.416887283325195, 1.112558126449585, 6.265294551849365, -14.50650405883789, 109.29530334472656, -188.0171356201172, 
246, 1259315625, -9.799345970153809, 67.05767822265625, -116.16057586669922, -14.095620155334473, 1.7788469791412354, 5.5046868324279785, -4.943664073944092, 103.88932037353516, -170.37310791015625, 
247, 1259332292, -16.5277042388916, 68.15642547607422, -123.29814910888672, -13.439937591552734, 2.075986623764038, 5.128864765167236, -7.066424369812012, 99.32522583007812, -142.25753784179688, 
248, 1259348959, -22.70380973815918, 69.0213851928711, -129.69366455078125, -12.68445110321045, 1.0931822061538696, 5.435664653778076, -12.698509216308594, 93.99882507324219, -113.1031265258789, 
249, 1259365626, -28.052719116210938, 69.73993682861328, -135.23899841308594, -12.00609016418457, -0.02913794293999672, 5.938214302062988, -8.962577819824219, 87.36956024169922, -86.09828186035156, 
250, 1259382293, -32.399967193603516, 70.37655639648438, -139.86471557617188, -11.443801879882812, -0.5360022783279419, 5.937508583068848, 0.5765941739082336, 78.98686218261719, -61.385826110839844, 
251, 1259398960, -35.87897872924805, 70.9471664428711, -143.67306518554688, -10.856485366821289, -1.1201984882354736, 5.172861576080322, 7.326230049133301, 69.2581787109375, -42.33562469482422, 
252, 1259415627, -38.55195236206055, 71.4828109741211, -146.72128295898438, -10.511526107788086, -1.304773211479187, 4.469799041748047, 13.184861183166504, 59.77914047241211, -26.451519012451172, 
253, 1259432294, -40.662193298339844, 71.98097229003906, -149.20816040039062, -10.295354843139648, -1.43592369556427, 3.924851179122925, 15.45602035522461, 51.49813461303711, -16.024084091186523, 
254, 1259448961, -42.38948059082031, 72.42974090576172, -151.2572021484375, -10.294157981872559, -1.1013906002044678, 3.5956711769104004, 12.356548309326172, 43.291934967041016, -8.98459243774414, 
255, 1259465628, -44.076602935791016, 72.79951477050781, -153.0460205078125, -9.953794479370117, -1.0923676490783691, 3.15739369392395, 0.12027141451835632, 36.42632293701172, -6.957172393798828, 
256, 1259482295, -45.86178207397461, 73.07872772216797, -154.766357421875, -9.6554536819458, -1.6700122356414795, 3.075792074203491, -9.592367172241211, 31.58500099182129, -8.434065818786621, 
257, 1259498962, -47.721282958984375, 73.26459503173828, -156.60743713378906, -9.474123001098633, -2.4822816848754883, 3.113990545272827, -7.065699577331543, 29.302595138549805, -12.650249481201172, 
258, 1259515629, -49.39255905151367, 73.40335845947266, -158.47547912597656, -9.583647727966309, -2.51151442527771, 3.1560685634613037, 5.852721214294434, 28.006275177001953, -13.944372177124023, 
259, 1259532296, -50.76746368408203, 73.46711730957031, -160.2664794921875, -9.60134506225586, -2.8432364463806152, 3.315566062927246, 19.188161849975586, 24.382169723510742, -15.637389183044434, 
260, 1259548963, -51.81135177612305, 73.46432495117188, -162.04315185546875, -9.418627738952637, -3.2547988891601562, 3.177279233932495, 38.12199783325195, 22.0192928314209, -17.98925018310547, 
261, 1259565630, -52.47930908203125, 73.4139633178711, -163.8130340576172, -9.400050163269043, -3.082394599914551, 3.0332672595977783, 60.29578399658203, 20.56535530090332, -19.830673217773438, 
262, 1259582297, -52.72309875488281, 73.3491439819336, -165.41049194335938, -9.428921699523926, -2.303173542022705, 2.7726452350616455, 75.65388488769531, 17.946651458740234, -18.556739807128906, 
263, 1259598964, -52.761749267578125, 73.2663345336914, -166.8186798095703, -9.481963157653809, -1.7320349216461182, 2.49037504196167, 76.75950622558594, 14.799409866333008, -17.405221939086914, 
264, 1259615631, -52.803375244140625, 73.160400390625, -168.0807647705078, -9.551071166992188, -1.787030577659607, 2.3967227935791016, 68.28955841064453, 12.175849914550781, -17.098371505737305, 
265, 1259632298, -52.94194793701172, 73.01725769042969, -169.2559814453125, -9.579246520996094, -2.05911922454834, 2.3562448024749756, 57.79100799560547, 9.953413963317871, -18.14322853088379, 
266, 1259648965, -53.11872863769531, 72.85359954833984, -170.31661987304688, -9.594244956970215, -1.9875847101211548, 2.276794672012329, 49.02168273925781, 7.895070552825928, -18.039098739624023, 
267, 1259665632, -53.339637756347656, 72.66354370117188, -171.25540161132812, -9.461021423339844, -2.0190579891204834, 2.0756444931030273, 39.73149108886719, 5.6112236976623535, -18.202186584472656, 
268, 1259682299, -53.6507453918457, 72.45527648925781, -172.12136840820312, -9.416632652282715, -2.0462262630462646, 1.9214222431182861, 30.525665283203125, 4.33404016494751, -18.503183364868164, 
269, 1259698966, -53.946800231933594, 72.26114654541016, -172.85995483398438, -9.48502254486084, -2.202068567276001, 1.7739934921264648, 24.646108627319336, 3.4381890296936035, -16.676965713500977, 
270, 1259715633, -54.17793273925781, 72.07779693603516, -173.49496459960938, -9.464531898498535, -2.6056861877441406, 1.73944091796875, 22.671607971191406, 2.5132081508636475, -15.137555122375488, 
271, 1259732300, -54.315452575683594, 71.90215301513672, -174.0742645263672, -9.388689041137695, -2.7871475219726562, 1.7837756872177124, 24.99324607849121, 2.0627951622009277, -14.195662498474121, 
272, 1259748967, -54.331634521484375, 71.7396011352539, -174.59771728515625, -9.318602561950684, -2.885571241378784, 1.7390549182891846, 29.596742630004883, 1.985817551612854, -13.125608444213867, 
273, 1259765634, -54.33799362182617, 71.55425262451172, -175.19287109375, -9.111833572387695, -3.239497184753418, 1.6173347234725952, 34.06990432739258, 2.3027913570404053, -15.032333374023438, 
274, 1259782301, -54.37163162231445, 71.34133911132812, -175.88314819335938, -9.028535842895508, -3.094853639602661, 1.6283371448516846, 38.13814163208008, 3.0458619594573975, -17.558626174926758, 
275, 1259798968, -54.364139556884766, 71.13279724121094, -176.55978393554688, -9.164017677307129, -2.6591856479644775, 1.6662102937698364, 40.08280563354492, 3.225128173828125, -17.33753204345703, 
276, 1259815635, -54.303985595703125, 70.94148254394531, -177.16648864746094, -9.28817367553711, -2.402123212814331, 1.6423548460006714, 39.33501052856445, 2.866149425506592, -15.813060760498047, 
277, 1259832302, -54.22528839111328, 70.75959014892578, -177.7024383544922, -9.26147174835205, -2.4975013732910156, 1.596770167350769, 36.647098541259766, 2.2391703128814697, -14.692024230957031, 
278, 1259848969, -54.13211441040039, 70.60420227050781, -178.1767578125, -9.33981990814209, -2.654132843017578, 1.5836217403411865, 33.964908599853516, 2.215822458267212, -12.747102737426758, 
279, 1259865636, -54.0143928527832, 70.46549224853516, -178.5973663330078, -9.326482772827148, -2.8808186054229736, 1.636976718902588, 32.38513946533203, 1.9658914804458618, -11.363607406616211, 
280, 1259882303, -53.83315658569336, 70.34725952148438, -178.96694946289062, -9.285757064819336, -2.8530032634735107, 1.7264617681503296, 33.36677169799805, 1.8969676494598389, -9.822946548461914, 
281, 1259898970, -53.55964279174805, 70.25587463378906, -179.29052734375, -9.129244804382324, -2.80196213722229, 1.7095237970352173, 36.345458984375, 2.1106436252593994, -8.021628379821777, 
282, 1259915637, -53.20132064819336, 70.19049835205078, -179.5886993408203, -9.003238677978516, -2.824936866760254, 1.7089735269546509, 39.951881408691406, 2.5799756050109863, -6.483161449432373, 
283, 1259932304, -52.75811767578125, 70.15738677978516, -179.85626220703125, -8.947382926940918, -2.763273000717163, 1.7583627700805664, 43.276702880859375, 3.1930861473083496, -4.5818095207214355, 
284, 1259948971, -52.2730712890625, 70.15010070800781, 179.90017700195312, -8.901415824890137, -2.7588999271392822, 1.7197085618972778, 44.31600570678711, 3.6617894172668457, -3.0552573204040527, 
285, 1259965638, -51.86972427368164, 70.13494110107422, 179.59620666503906, -8.873888969421387, -2.9375133514404297, 1.6999223232269287, 42.77703857421875, 4.2961297035217285, -4.20253324508667, 
286, 1259982305, -51.54271697998047, 70.10958099365234, 179.2406463623047, -8.880218505859375, -2.89585542678833, 1.7373740673065186, 41.08416748046875, 4.702232360839844, -5.355865478515625, 
287, 1259998972, -51.32455825805664, 70.06787109375, 178.80145263671875, -8.818197250366211, -2.8282833099365234, 1.7137136459350586, 39.149940490722656, 5.359878063201904, -7.1732096672058105, 
288, 1260015639, -51.206729888916016, 70.0237808227539, 178.29310607910156, -8.830653190612793, -2.6372504234313965, 1.7125020027160645, 36.99410629272461, 6.348325729370117, -8.190484046936035, 
289, 1260032306, -51.15133285522461, 69.99382019042969, 177.76449584960938, -8.923321723937988, -2.43658447265625, 1.7346742153167725, 34.29579162597656, 7.166701793670654, -7.789496898651123, 
290, 1260048973, -51.174293518066406, 69.97806549072266, 177.22459411621094, -8.994784355163574, -2.497936964035034, 1.7615574598312378, 30.177101135253906, 7.867782115936279, -7.273931503295898, 
291, 1260065640, -51.25579071044922, 69.97455596923828, 176.67520141601562, -8.9908447265625, -2.6080331802368164, 1.8628103733062744, 26.308687210083008, 8.142868995666504, -6.563642978668213, 
292, 1260082307, -51.39864730834961, 69.98267364501953, 176.1176300048828, -8.946762084960938, -2.6618812084198, 1.968261957168579, 23.088350296020508, 8.724958419799805, -6.111171722412109, 
293, 1260098974, -51.629295349121094, 69.98755645751953, 175.51461791992188, -8.929831504821777, -2.7349202632904053, 2.0518949031829834, 20.38176727294922, 9.35813045501709, -6.813215255737305, 
294, 1260115641, -51.95097732543945, 69.9714584350586, 174.84805297851562, -8.950660705566406, -2.7387988567352295, 2.1279163360595703, 18.496545791625977, 9.645137786865234, -8.568678855895996, 
295, 1260132308, -52.31698989868164, 69.9426040649414, 174.15599060058594, -9.003913879394531, -2.59643816947937, 2.148054361343384, 17.267860412597656, 9.666370391845703, -9.439857482910156, 
296, 1260148975, -52.66970443725586, 69.91295623779297, 173.51145935058594, -9.081097602844238, -2.4529976844787598, 2.1728155612945557, 15.373666763305664, 8.944920539855957, -8.840222358703613, 
297, 1260165642, -52.99260711669922, 69.88825225830078, 172.94815063476562, -9.097700119018555, -2.4327497482299805, 2.1765575408935547, 12.575301170349121, 7.865544319152832, -7.560875415802002, 
298, 1260182309, -53.24176788330078, 69.8849105834961, 172.50184631347656, -9.161389350891113, -2.561908006668091, 2.2180979251861572, 10.401087760925293, 6.757959842681885, -5.066412925720215, 
299, 1260198976, -53.40644836425781, 69.89389038085938, 172.1552276611328, -9.179808616638184, -2.774534225463867, 2.293006181716919, 9.85079574584961, 5.577392101287842, -3.230544090270996, 
300, 1260215643, -53.45501708984375, 69.91753387451172, 171.8968963623047, -9.158203125, -2.8192317485809326, 2.330644369125366, 11.84269905090332, 4.6513142585754395, -1.4290101528167725, 
301, 1260232310, -53.417152404785156, 69.9494400024414, 171.68865966796875, -9.101476669311523, -2.8167924880981445, 2.318065643310547, 14.202079772949219, 4.120875358581543, -0.4191265404224396, 
302, 1260248977, -53.30434036254883, 69.99121856689453, 171.5228729248047, -9.081515312194824, -2.8702664375305176, 2.263925075531006, 16.31058692932129, 3.777486562728882, 0.573987603187561, 
303, 1260265644, -53.13483428955078, 70.04202270507812, 171.4046630859375, -9.054283142089844, -2.879821538925171, 2.2557127475738525, 17.029932022094727, 3.323923349380493, 1.5869066715240479, 
304, 1260282311, -52.94755554199219, 70.093994140625, 171.3221893310547, -9.031661987304688, -2.934854030609131, 2.258002519607544, 16.077802658081055, 2.7841989994049072, 2.0702059268951416, 
305, 1260298978, -52.79021072387695, 70.13301086425781, 171.2460479736328, -9.02971363067627, -3.0094547271728516, 2.223532199859619, 13.929373741149902, 2.224541187286377, 1.5272607803344727, 
306, 1260315645, -52.68910217285156, 70.15534210205078, 171.1508331298828, -9.044740676879883, -2.9814870357513428, 2.226757764816284, 11.631363868713379, 1.932446837425232, 0.49434444308280945, 
307, 1260332312, -52.641544342041016, 70.1622085571289, 171.0347900390625, -9.044568061828613, -2.9483730792999268, 2.1846725940704346, 9.594002723693848, 1.7131766080856323, -0.49573397636413574, 
308, 1260348979, -52.640865325927734, 70.156494140625, 170.91558837890625, -9.080974578857422, -2.8757524490356445, 2.176253080368042, 6.9639973640441895, 1.3105700016021729, -1.132568120956421, 
309, 1260365646, -52.66801071166992, 70.14452362060547, 170.80963134765625, -9.086286544799805, -2.9434568881988525, 2.142042636871338, 4.540396213531494, 0.8708896040916443, -1.2675598859786987, 
310, 1260382313, -52.70861053466797, 70.12965393066406, 170.7108154296875, -9.082893371582031, -3.043381690979004, 2.123204469680786, 3.332730770111084, 0.6552432775497437, -1.3146229982376099, 
311, 1260398980, -52.75191116333008, 70.11096954345703, 170.596435546875, -9.089484214782715, -3.067416191101074, 2.089304208755493, 4.045718193054199, 0.771685004234314, -1.684425711631775, 
312, 1260415647, -52.77787399291992, 70.0933837890625, 170.46702575683594, -9.047286033630371, -3.050445318222046, 2.020551919937134, 5.940590858459473, 1.0630615949630737, -1.8084875345230103, 
313, 1260432314, -52.80905532836914, 70.07266235351562, 170.31272888183594, -9.08095932006836, -2.968256711959839, 1.9954745769500732, 7.0258026123046875, 1.356276035308838, -2.26130747795105, 
314, 1260448981, -52.845760345458984, 70.05110931396484, 170.16055297851562, -9.091644287109375, -2.8756606578826904, 1.9769411087036133, 6.577335834503174, 1.2973538637161255, -2.2714242935180664, 
315, 1260465648, -52.93755340576172, 70.02227783203125, 169.98892211914062, -9.072497367858887, -2.8575563430786133, 1.994990587234497, 4.368163585662842, 1.3563910722732544, -2.860144853591919, 
316, 1260482315, -53.0574951171875, 69.9924087524414, 169.82357788085938, -9.053028106689453, -2.9097042083740234, 1.9560414552688599, 2.317673921585083, 1.223422646522522, -2.83514666557312, 
317, 1260498982, -53.20115661621094, 69.95318603515625, 169.6549835205078, -9.021721839904785, -2.962569236755371, 1.939102053642273, 1.080702304840088, 0.953676164150238, -3.3195340633392334, 
318, 1260515649, -53.332923889160156, 69.91997528076172, 169.49722290039062, -8.98603630065918, -2.9743809700012207, 1.944832444190979, 1.1795544624328613, 1.0017766952514648, -2.896393060684204, 
319, 1260532316, -53.448158264160156, 69.89197540283203, 169.34844970703125, -9.007195472717285, -2.9732165336608887, 1.9471608400344849, 1.6674764156341553, 1.0496084690093994, -2.530099391937256, 
320, 1260548983, -53.525516510009766, 69.8759765625, 169.23121643066406, -9.047449111938477, -2.97462797164917, 1.982517957687378, 2.1590609550476074, 0.9615776538848877, -1.5615230798721313, 
321, 1260565650, -53.56037521362305, 69.86886596679688, 169.15579223632812, -9.077651023864746, -2.9500880241394043, 2.019885540008545, 2.3553695678710938, 0.5868765711784363, -0.617118775844574, 
322, 1260582317, -53.56489944458008, 69.87667083740234, 169.1166534423828, -9.099172592163086, -2.858581066131592, 2.006775379180908, 2.1293182373046875, 0.5145271420478821, 0.5472986102104187, 
323, 1260598984, -53.53150939941406, 69.8976821899414, 169.1288299560547, -9.170321464538574, -2.8915092945098877, 2.0307276248931885, 1.5125964879989624, 0.13438984751701355, 1.8116759061813354, 
324, 1260615651, -53.46907424926758, 69.9164810180664, 169.1727752685547, -9.191200256347656, -3.015775203704834, 2.0987205505371094, 1.4703352451324463, -0.46933987736701965, 2.0939533710479736, 
325, 1260632318, -53.366756439208984, 69.93962097167969, 169.2281036376953, -9.10489273071289, -3.0317845344543457, 2.0964572429656982, 3.213798761367798, -0.50208580493927, 2.4399750232696533, 
326, 1260648985, -53.22750473022461, 69.9637680053711, 169.28189086914062, -8.939401626586914, -3.0140860080718994, 2.1077253818511963, 5.524806976318359, -0.43017813563346863, 2.4771642684936523, 
327, 1260665652, -53.04757308959961, 69.9946060180664, 169.3406524658203, -8.779132843017578, -2.9394025802612305, 2.0947813987731934, 7.6783366203308105, -0.2665386199951172, 2.8571035861968994, 
328, 1260682319, -52.86257553100586, 70.033203125, 169.40049743652344, -8.79699993133545, -2.8391847610473633, 2.1136276721954346, 7.928189277648926, 0.0134146548807621, 3.2507710456848145, 
329, 1260698986, -52.68355178833008, 70.07208251953125, 169.48268127441406, -8.899070739746094, -2.7725837230682373, 2.1644296646118164, 6.303778648376465, -0.3312234580516815, 3.5330862998962402, 
330, 1260715653, -52.521820068359375, 70.09989929199219, 169.585205078125, -8.92126750946045, -2.7575831413269043, 2.16658091545105, 4.122562885284424, -1.0470728874206543, 3.259312391281128, 
331, 1260732320, -52.3658561706543, 70.11998748779297, 169.7117462158203, -8.845455169677734, -2.7063698768615723, 2.135180950164795, 2.41707706451416, -1.7074579000473022, 3.1865592002868652, 
332, 1260748987, -52.20814895629883, 70.14420318603516, 169.86314392089844, -8.863042831420898, -2.6426970958709717, 2.142744779586792, 1.1190061569213867, -1.9452013969421387, 3.689739942550659, 
333, 1260765654, -52.021949768066406, 70.17584991455078, 170.05178833007812, -8.942090034484863, -2.625199556350708, 2.1778130531311035, 0.7255117893218994, -2.253917694091797, 4.506868362426758, 
334, 1260782321, -51.80398941040039, 70.21533966064453, 170.26756286621094, -9.001836776733398, -2.6162984371185303, 2.1746761798858643, 1.0980740785598755, -2.3768842220306396, 5.2133307456970215, 
335, 1260798988, -51.530330657958984, 70.2682113647461, 170.52293395996094, -9.032938957214355, -2.6165289878845215, 2.191615104675293, 2.1993179321289062, -2.478182554244995, 6.3376641273498535, 
336, 1260815655, -51.21291732788086, 70.33406066894531, 170.80923461914062, -9.039843559265137, -2.5812482833862305, 2.20578932762146, 3.0722122192382812, -2.436908483505249, 7.334461212158203, 
337, 1260832322, -50.869651794433594, 70.40972137451172, 171.12957763671875, -9.020750045776367, -2.458805799484253, 2.226487398147583, 2.6922221183776855, -2.542868137359619, 8.214936256408691, 
338, 1260848989, -50.54019546508789, 70.49246978759766, 171.4862518310547, -9.062834739685059, -2.386751890182495, 2.2059285640716553, -0.2020970731973648, -2.770219087600708, 8.994997024536133, 
339, 1260865656, -50.221466064453125, 70.58555603027344, 171.90444946289062, -9.140645027160645, -2.3465287685394287, 2.2155373096466064, -4.333017349243164, -3.248396396636963, 10.240801811218262, 
340, 1260882323, -49.901580810546875, 70.67871856689453, 172.3986053466797, -9.153840065002441, -2.409034013748169, 2.229430913925171, -8.579900741577148, -4.318099498748779, 11.196528434753418, 
341, 1260898990, -49.57059860229492, 70.77327728271484, 172.95388793945312, -9.128726959228516, -2.4776811599731445, 2.2332603931427, -11.391054153442383, -5.093294620513916, 12.025359153747559, 
342, 1260915657, -49.22291946411133, 70.8692626953125, 173.54678344726562, -9.135613441467285, -2.571948289871216, 2.2313647270202637, -12.538044929504395, -5.489306926727295, 12.563075065612793, 
343, 1260932324, -48.82502746582031, 70.97105407714844, 174.19297790527344, -9.177711486816406, -2.6054654121398926, 2.2473275661468506, -12.570441246032715, -5.930621147155762, 13.502814292907715, 
344, 1260948991, -48.38037872314453, 71.07485961914062, 174.88189697265625, -9.188488006591797, -2.6746230125427246, 2.214268922805786, -12.207931518554688, -6.330974578857422, 14.14095687866211, 
345, 1260965658, -47.89231872558594, 71.1863784790039, 175.60272216796875, -9.211541175842285, -2.6550588607788086, 2.1932172775268555, -11.440203666687012, -6.320077419281006, 14.899581909179688, 
346, 1260982325, -47.371280670166016, 71.30204010009766, 176.34352111816406, -9.233918190002441, -2.731323003768921, 2.1661744117736816, -10.618391990661621, -6.249552249908447, 15.345166206359863, 
347, 1260998992, -46.85036849975586, 71.41437530517578, 177.07998657226562, -9.205843925476074, -2.748196601867676, 2.1603574752807617, -10.407581329345703, -6.132494926452637, 15.141742706298828, 
348, 1261015659, -46.34239196777344, 71.5273208618164, 177.8101043701172, -9.177184104919434, -2.6938836574554443, 2.128059148788452, -10.847554206848145, -5.830865859985352, 15.08791732788086, 
349, 1261032326, -45.896759033203125, 71.63541412353516, 178.5161590576172, -9.179899215698242, -2.6202547550201416, 2.1219100952148438, -13.240797996520996, -5.528367519378662, 14.558502197265625, 
350, 1261048993, -45.54075622558594, 71.73280334472656, 179.19911193847656, -9.156243324279785, -2.622587203979492, 2.1305065155029297, -17.327985763549805, -5.522454261779785, 13.781867980957031, 
351, 1261065660, -45.27271270751953, 71.81806182861328, 179.8637237548828, -9.164965629577637, -2.583533763885498, 2.164815664291382, -21.57710838317871, -5.67514705657959, 13.013361930847168, 
352, 1261082327, -45.07155227661133, 71.89179992675781, -179.485107421875, -9.121842384338379, -2.6199209690093994, 2.1192784309387207, -24.842208862304688, -5.904345512390137, 12.333732604980469, 
353, 1261098994, -44.88951873779297, 71.95764923095703, -178.83474731445312, -9.086466789245605, -2.6583194732666016, 2.0905942916870117, -25.95162010192871, -6.1561970710754395, 11.987439155578613, 
354, 1261115661, -44.694313049316406, 72.02503204345703, -178.1842498779297, -9.098678588867188, -2.6873786449432373, 2.074902057647705, -25.1840763092041, -6.036635875701904, 12.044705390930176, 
355, 1261132328, -44.474700927734375, 72.09752655029297, -177.54820251464844, -9.123193740844727, -2.7572171688079834, 2.023015022277832, -22.90652847290039, -5.561285495758057, 12.070723533630371, 
356, 1261148995, -44.24945068359375, 72.17728424072266, -176.95672607421875, -9.221928596496582, -2.763580322265625, 1.9737882614135742, -20.03496551513672, -4.605870246887207, 11.784388542175293, 
357, 1261165662, -44.04547882080078, 72.25775146484375, -176.4263916015625, -9.345260620117188, -2.7442052364349365, 1.9417943954467773, -17.83005142211914, -3.7261669635772705, 11.004648208618164, 
358, 1261182329, -43.88063430786133, 72.3423843383789, -175.95152282714844, -9.471776008605957, -2.610424041748047, 1.924848198890686, -17.018421173095703, -2.789483070373535, 10.440409660339355, 
359, 1261198996, -43.80107498168945, 72.42221069335938, -175.54791259765625, -9.509049415588379, -2.5737342834472656, 1.8522472381591797, -18.075111389160156, -2.065154790878296, 9.287914276123047, 
360, 1261215663, -43.82667541503906, 72.49360656738281, -175.22509765625, -9.529196739196777, -2.5747103691101074, 1.826146125793457, -19.768789291381836, -1.403200387954712, 7.87024450302124, 
361, 1261232330, -43.95337677001953, 72.5569076538086, -174.97076416015625, -9.478067398071289, -2.636949062347412, 1.7701207399368286, -20.4081974029541, -0.6020209789276123, 6.197040557861328, 
362, 1261248997, -44.19194030761719, 72.59906768798828, -174.84457397460938, -9.346173286437988, -2.73941969871521, 1.688201904296875, -19.72174072265625, 0.07356617599725723, 3.643277168273926, 
363, 1261265664, -44.5335578918457, 72.62378692626953, -174.8557586669922, -9.198149681091309, -2.684492588043213, 1.6415021419525146, -17.936527252197266, 1.0373985767364502, 1.135597825050354, 
364, 1261282331, -44.96891784667969, 72.6353759765625, -174.99090576171875, -9.1025972366333, -2.5883219242095947, 1.5417394638061523, -16.44523811340332, 2.0208373069763184, -0.9790847897529602, 
365, 1261298998, -45.51170349121094, 72.62969970703125, -175.249755859375, -9.134288787841797, -2.554600477218628, 1.4550951719284058, -15.780165672302246, 2.8635215759277344, -3.2517144680023193, 
366, 1261315665, -46.119441986083984, 72.60337829589844, -175.58493041992188, -9.282671928405762, -2.526104688644409, 1.411559820175171, -15.277963638305664, 3.0076189041137695, -5.065914630889893, 
367, 1261332332, -46.778751373291016, 72.55230712890625, -175.9900360107422, -9.415132522583008, -2.5612785816192627, 1.2936891317367554, -14.14864444732666, 2.991495370864868, -7.032689094543457, 
368, 1261348999, -47.461669921875, 72.47924041748047, -176.465576171875, -9.497305870056152, -2.6391994953155518, 1.2003432512283325, -11.494175910949707, 3.120807647705078, -8.847101211547852, 
369, 1261365666, -48.138153076171875, 72.39824676513672, -177.00729370117188, -9.55762767791748, -2.6015262603759766, 1.1397719383239746, -7.218687057495117, 3.8272440433502197, -10.013238906860352, 
370, 1261382333, -48.78181457519531, 72.3238296508789, -177.58529663085938, -9.59886646270752, -2.5744524002075195, 1.1057562828063965, -3.14056658744812, 4.724411487579346, -10.140660285949707, 
371, 1261399000, -49.373146057128906, 72.25887298583984, -178.17677307128906, -9.630277633666992, -2.6294186115264893, 1.1266635656356812, 0.7255503535270691, 5.397564888000488, -9.831310272216797, 
372, 1261415667, -49.9145393371582, 72.21014404296875, -178.77481079101562, -9.625092506408691, -2.6356453895568848, 1.168020486831665, 4.030998706817627, 6.213150501251221, -9.115921974182129, 
373, 1261432334, -50.424007415771484, 72.17550659179688, -179.3737335205078, -9.591832160949707, -2.68772554397583, 1.2418556213378906, 6.125042915344238, 6.883960247039795, -8.463438987731934, 
374, 1261449001, -50.92319869995117, 72.15709686279297, -179.98362731933594, -9.550353050231934, -2.763002395629883, 1.2639594078063965, 7.507413387298584, 7.758341312408447, -7.816808223724365, 
375, 1261465668, -51.4178581237793, 72.1397476196289, 179.39398193359375, -9.436397552490234, -2.8583178520202637, 1.3431487083435059, 8.242741584777832, 7.990187644958496, -7.773036956787109, 
376, 1261482335, -51.93088912963867, 72.1197509765625, 178.7489013671875, -9.278331756591797, -2.937878370285034, 1.3842359781265259, 8.437054634094238, 8.285438537597656, -8.085205078125, 
377, 1261499002, -52.47871780395508, 72.08853149414062, 178.07763671875, -9.206851959228516, -2.9865927696228027, 1.4198458194732666, 7.933404922485352, 8.353965759277344, -8.852766036987305, 
378, 1261515669, -53.07278823852539, 72.03446197509766, 177.35760498046875, -9.163915634155273, -3.1225745677948, 1.5046255588531494, 7.81471586227417, 8.31872272491455, -10.379606246948242, 
379, 1261532336, -53.675331115722656, 71.95684051513672, 176.60597229003906, -9.175005912780762, -3.22792649269104, 1.604997158050537, 9.146618843078613, 8.102028846740723, -11.793137550354004, 
380, 1261549003, -54.2740592956543, 71.85397338867188, 175.81614685058594, -9.198798179626465, -3.2904648780822754, 1.6703202724456787, 11.668052673339844, 7.991665363311768, -13.40770149230957, 
381, 1261565670, -54.82640838623047, 71.734619140625, 175.0070343017578, -9.15445613861084, -3.26939058303833, 1.6878973245620728, 15.416238784790039, 7.896275043487549, -14.345364570617676, 
382, 1261582337, -55.327598571777344, 71.59941101074219, 174.15394592285156, -9.1221284866333, -3.238995313644409, 1.6953904628753662, 18.92576026916504, 7.814727783203125, -15.079319953918457, 
383, 1261599004, -55.78647994995117, 71.4610595703125, 173.3191680908203, -9.099212646484375, -3.1758487224578857, 1.72615385055542, 22.303871154785156, 8.070294380187988, -15.479729652404785, 
384, 1261615671, -56.20772933959961, 71.31171417236328, 172.4443359375, -9.126541137695312, -3.1247005462646484, 1.7470240592956543, 24.891172409057617, 8.143974304199219, -15.990020751953125, 
385, 1261632338, -56.61713790893555, 71.1538314819336, 171.5517120361328, -9.156603813171387, -3.0082204341888428, 1.7559990882873535, 26.566007614135742, 8.38686466217041, -16.609193801879883, 
386, 1261649005, -57.0348014831543, 70.98452758789062, 170.6472930908203, -9.12905216217041, -2.9264628887176514, 1.7388014793395996, 26.69185447692871, 8.457300186157227, -17.318603515625, 
387, 1261665672, -57.46328353881836, 70.80762481689453, 169.74456787109375, -9.135457038879395, -2.7277779579162598, 1.7749197483062744, 25.891000747680664, 8.453593254089355, -17.699254989624023, 
388, 1261682339, -57.9026985168457, 70.63223266601562, 168.8754119873047, -9.09653091430664, -2.5768790245056152, 1.7940075397491455, 23.279159545898438, 8.222623825073242, -17.285953521728516, 
389, 1261699006, -58.36358642578125, 70.45580291748047, 168.0426483154297, -9.033968925476074, -2.5225563049316406, 1.822595238685608, 19.874256134033203, 7.8509979248046875, -16.97442626953125, 
390, 1261715673, -58.82220458984375, 70.28535461425781, 167.2441864013672, -9.023143768310547, -2.532501220703125, 1.861626148223877, 18.018978118896484, 7.719883918762207, -16.322601318359375, 
391, 1261732340, -59.256004333496094, 70.12772369384766, 166.4763946533203, -9.008450508117676, -2.4925479888916016, 1.9164015054702759, 17.731229782104492, 7.836920738220215, -15.353437423706055, 
392, 1261749007, -59.669551849365234, 69.98524475097656, 165.73910522460938, -9.050575256347656, -2.382777452468872, 1.9654521942138672, 17.180538177490234, 7.987431526184082, -14.261140823364258, 
393, 1261765674, -60.06199264526367, 69.85513305664062, 165.05612182617188, -9.118414878845215, -2.3536362648010254, 2.0224649906158447, 15.348965644836426, 7.593684196472168, -13.062676429748535, 
394, 1261782341, -60.427696228027344, 69.7375717163086, 164.44393920898438, -9.119203567504883, -2.3400840759277344, 2.0454654693603516, 12.92817211151123, 6.868917465209961, -11.687178611755371, 
395, 1261799008, -60.75861740112305, 69.63911437988281, 163.90786743164062, -9.078780174255371, -2.341494560241699, 2.055018424987793, 10.709402084350586, 6.197490692138672, -9.910869598388672, 
396, 1261815675, -61.031742095947266, 69.56591033935547, 163.4615020751953, -9.012273788452148, -2.370027542114258, 2.0819435119628906, 9.10788631439209, 5.399549961090088, -7.6822638511657715, 
397, 1261832342, -61.23825454711914, 69.52213287353516, 163.11380004882812, -8.983382225036621, -2.3990132808685303, 2.1075656414031982, 7.547097682952881, 4.510916233062744, -5.141878604888916, 
398, 1261849009, -61.39008331298828, 69.5061264038086, 162.8569793701172, -8.989089012145996, -2.5104639530181885, 2.123948097229004, 5.708789348602295, 3.674295663833618, -2.771998882293701, 
399, 1261865676, -61.487030029296875, 69.50375366210938, 162.6868133544922, -9.029767990112305, -2.650937795639038, 2.11289644241333, 4.133288383483887, 2.4903225898742676, -1.187142252922058, 
400, 1261882343, -61.5338020324707, 69.50541687011719, 162.58465576171875, -9.0441312789917, -2.731520891189575, 2.112670421600342, 3.316972255706787, 1.3624675273895264, -0.30222344398498535, 
401, 1261899010, -61.53249740600586, 69.50129699707031, 162.54151916503906, -8.9959135055542, -2.8018860816955566, 2.085056781768799, 2.8821520805358887, 0.1179528757929802, -0.026918945834040642, 
402, 1261915677, -61.46836471557617, 69.50051879882812, 162.55848693847656, -8.966280937194824, -2.829942226409912, 2.0445668697357178, 3.2710041999816895, -0.8850595951080322, 0.7435814738273621, 
