PacketCounter,SampleTimeFine,Acc_X,Acc_Y,Acc_Z,Unnamed: 11
0,1255215543,0.0,0.0,0.0, 
1,1255232210,-8.874123573,-0.679626524,2.768367767, 
2,1255248877,-8.873473167,-0.6139732,2.761705875, 
3,1255265544,-8.834931374,-0.518205583,2.797576189, 
4,1255282211,-8.921975136,-0.508252025,2.836314678, 
5,1255298878,-8.999269485,-0.533705711,2.816626549, 
6,1255315545,-9.107514381,-0.6135536429999999,2.853754997, 
7,1255332212,-9.238413811000001,-0.62760812,2.94905591, 
8,1255348879,-9.315173149,-0.664987206,3.0244174, 
9,1255365546,-9.2879076,-0.784249663,2.9522790910000003, 
10,1255382213,-9.356492043,-0.9180244209999999,2.9159615039999998, 
11,1255398880,-9.4090662,-1.1003813740000001,2.840000868, 
12,1255415547,-9.492028236,-1.15633142,2.849095583, 
13,1255432214,-9.486642838,-0.9685679079999999,2.856375217, 
14,1255448881,-9.41118145,-0.917464077,2.895764828, 
15,1255465548,-9.480053902,-0.881772876,2.954768896, 
16,1255482215,-9.541958809,-0.9248306159999999,3.0024206639999997, 
17,1255498882,-9.502543449,-1.105391979,2.984278202, 
18,1255515549,-9.367800713,-1.191296339,2.9182331560000003, 
19,1255532216,-9.209679604,-1.22127378,2.8194944860000004, 
20,1255548883,-9.26220417,-1.3147733209999999,2.725590706, 
21,1255565550,-9.39744091,-1.4130374190000001,2.58670783, 
22,1255582217,-9.388744354,-1.416482091,2.433223248, 
23,1255598884,-9.218002319,-1.4946120980000002,2.343254328, 
24,1255615551,-9.025524139,-1.503804088,2.305296421, 
25,1255632218,-8.9522295,-1.2877706290000002,2.270295382, 
26,1255648885,-8.910707474,-1.106283188,2.2904675009999997, 
27,1255665552,-9.00732708,-1.08169651,2.3074135780000002, 
28,1255682219,-9.202269553999999,-1.194890857,2.27965188, 
29,1255698886,-9.394330978,-1.2628812790000001,2.348522425, 
30,1255715553,-9.581329346,-1.164235592,2.463665247, 
31,1255732220,-9.717392921,-1.043125033,2.545585871, 
32,1255748887,-9.74269104,-1.159273505,2.602757215, 
33,1255765554,-9.820854187,-1.325475097,2.635091305, 
34,1255782221,-9.872433662,-1.4866033790000002,2.605512381, 
35,1255798888,-9.874031067,-1.6238636969999998,2.561533451, 
36,1255815555,-9.79417038,-1.679305315,2.435746193, 
37,1255832222,-9.682277679,-1.8313010930000002,2.2834062580000003, 
38,1255848889,-9.642106056,-2.050971508,2.101383924, 
39,1255865556,-9.6283741,-2.301100969,1.96160686, 
40,1255882223,-9.556369781,-2.436258793,1.849617481, 
41,1255898890,-9.431333542,-2.479624748,1.765345454, 
42,1255915557,-9.254405022,-2.508145809,1.649252295, 
43,1255932224,-9.15892601,-2.4789402480000002,1.6266510490000001, 
44,1255948891,-9.090911865,-2.409852743,1.626876354, 
45,1255965558,-9.108563423,-2.3773567680000003,1.689242601, 
46,1255982225,-9.149327278,-2.278923035,1.825347424, 
47,1255998892,-9.151376724,-2.220567226,1.913936615, 
48,1256015559,-9.226408958,-2.046863079,2.05485487, 
49,1256032226,-9.211568832000001,-1.861409664,2.1493990419999998, 
50,1256048893,-9.283227921,-1.660060406,2.319944859, 
51,1256065560,-9.2971735,-1.570350528,2.435545683, 
52,1256082227,-9.296604156,-1.477792859,2.60724926, 
53,1256098894,-9.250766753999999,-1.497730613,2.720008373, 
54,1256115561,-9.245512009,-1.5327631240000001,2.839811802, 
55,1256132228,-9.268593787999999,-1.614396214,2.883728027, 
56,1256148895,-9.261181831,-1.613652825,2.928193331, 
57,1256165562,-9.207645416,-1.49127233,2.9252433780000002, 
58,1256182229,-9.124627112999999,-1.355243325,2.916049957, 
59,1256198896,-9.119188309,-1.2843616009999999,2.869709015, 
60,1256215563,-9.227641106,-1.2631978990000001,2.825106144, 
61,1256232230,-9.331486702000001,-1.27811873,2.82088089, 
62,1256248897,-9.28958416,-1.245267153,2.796091557, 
63,1256265564,-9.183558463999999,-1.254084826,2.7322742939999998, 
64,1256282231,-9.192109108,-1.180521369,2.694669962, 
65,1256298898,-9.24239254,-1.113642097,2.64490366, 
66,1256315565,-9.231343269,-1.112011909,2.62864089, 
67,1256332232,-9.212422371,-1.0798636670000001,2.604550838, 
68,1256348899,-9.211267471000001,-1.043241024,2.560447454, 
69,1256365566,-9.299034119,-1.107560277,2.502231121, 
70,1256382233,-9.390885353,-1.21090579,2.502262354, 
71,1256398900,-9.302830696000001,-1.290979981,2.453446627, 
72,1256415567,-9.246713638,-1.319894075,2.4088027480000003, 
73,1256432234,-9.324363708,-1.397663951,2.341113091, 
74,1256448901,-9.443282127,-1.439763069,2.3381464480000003, 
75,1256465568,-9.490115166,-1.448429108,2.250044346, 
76,1256482235,-9.634625435,-1.418675423,2.145313501, 
77,1256498902,-9.786496162,-1.380609155,2.083408833, 
78,1256515569,-9.916755676000001,-1.3013025520000001,2.047048092, 
79,1256532236,-10.01613617,-1.212618232,1.9467043880000001, 
80,1256548903,-9.995007515,-1.255111337,1.845424294, 
81,1256565570,-9.786570549,-1.278197408,1.787450671, 
82,1256582237,-9.520105362,-1.181063294,1.705340385, 
83,1256598904,-9.389989853,-1.127860308,1.5008990759999998, 
84,1256615571,-9.472895622000001,-1.210685253,1.2468081709999999, 
85,1256632238,-9.515264511,-1.357436776,1.037452102, 
86,1256648905,-9.39229393,-1.4292349819999999,1.033370852, 
87,1256665572,-9.138472557,-1.306214452,0.9826034309999999, 
88,1256682239,-9.184446335,-1.072401047,0.7617227440000001, 
89,1256698906,-9.499026299,-0.8739308709999999,0.715389013, 
90,1256715573,-9.590433121,-0.7955043909999999,0.9361783859999999, 
91,1256732240,-9.454922676,-0.755088687,1.32378757, 
92,1256748907,-9.217079163,-0.711274385,1.62642324, 
93,1256765574,-9.046947479,-0.49989020799999995,1.79616642, 
94,1256782241,-9.026164055,-0.16084784300000002,2.110927105, 
95,1256798908,-9.151039124,0.07858634,2.9665279389999997, 
96,1256815575,-9.111748695,0.22833804800000002,3.69084096, 
97,1256832242,-8.826469421,0.613578975,4.165984153999999, 
98,1256848909,-8.742866516,1.406816244,4.821878433, 
99,1256865576,-9.101665497,2.3313789369999998,5.717717648, 
100,1256882243,-10.00885296,2.9242410660000004,6.67016077, 
101,1256898910,-11.27161884,2.984164238,7.494795322000001, 
102,1256915577,-12.12207222,2.697124004,7.905621528999999, 
103,1256932244,-12.15124798,2.448981762,7.965778351, 
104,1256948911,-11.8398962,2.4788727759999998,7.777820587000001, 
105,1256965578,-11.97962475,2.894281626,7.6372766489999995, 
106,1256982245,-12.74009228,2.4446585180000002,7.776683807, 
107,1256998912,-13.61074162,1.989155412,7.234151363, 
108,1257015579,-14.30986023,1.904089451,6.2516307829999995, 
109,1257032246,-14.99091434,1.640040755,5.326798916, 
110,1257048913,-15.66629887,1.9618904590000001,4.649232864, 
111,1257065580,-16.24422073,2.9870753289999996,4.106440067, 
112,1257082247,-16.48121071,3.898440838,3.412699223, 
113,1257098914,-16.68012619,4.246371746,2.8133454319999998, 
114,1257115581,-17.25206566,4.538367271,2.7649090289999996, 
115,1257132248,-17.7339077,4.679570675,2.568261623, 
116,1257148915,-17.4090538,4.0099678039999995,2.480795622, 
117,1257165582,-16.62668419,3.473418951,2.3082118030000003, 
118,1257182249,-15.68228912,2.9611291889999998,2.2262239459999997, 
119,1257198916,-14.15900993,2.704989195,2.319188118, 
120,1257215583,-12.51551151,3.0242261889999997,2.206589222, 
121,1257232250,-10.86978054,3.430058002,2.100470781, 
122,1257248917,-9.25741291,3.687531948,1.866616726, 
123,1257265584,-7.816748619,3.5841150280000003,1.844449639, 
124,1257282251,-6.3159751889999995,2.880537987,2.316669703, 
125,1257298918,-5.038196564,2.469781876,2.6700434680000003, 
126,1257315585,-3.826206446,2.434433222,2.380149126, 
127,1257332252,-2.766310692,1.84497726,2.666324854, 
128,1257348919,-1.927027822,0.8074769970000001,3.512421608, 
129,1257365586,-1.373701453,0.45646920799999996,4.2701559069999995, 
130,1257382253,-0.69169718,0.510859787,4.086885452, 
131,1257398920,-0.21432031699999998,0.778778851,4.574792862, 
132,1257415587,0.34057146299999996,1.812144041,4.793260098, 
133,1257432254,0.5350186229999999,2.388042688,5.260408878, 
134,1257448921,0.352377385,2.970512629,6.108323574, 
135,1257465588,0.11990194,4.663901806,6.429268837, 
136,1257482255,0.28304565,5.997964382,6.276844025, 
137,1257498922,0.5726978779999999,6.953451157000001,6.012260437, 
138,1257515589,1.129484057,6.999148368999999,5.44896841, 
139,1257532256,1.522425175,6.547973633,5.168566704, 
140,1257548923,1.740535855,6.468835831,4.7122364039999995, 
141,1257565590,1.314269304,7.134486197999999,4.216224194, 
142,1257582257,0.778088331,7.118797778999999,3.309422255, 
143,1257598924,0.600895941,5.6322135929999995,2.285649061, 
144,1257615591,0.862242937,4.186554431999999,2.744572163, 
145,1257632258,1.478359222,3.7506477830000002,4.435661793, 
146,1257648925,2.9117136,2.716748714,7.472382545, 
147,1257665592,4.08686924,4.50604248,9.038537025, 
148,1257682259,3.4519262310000003,8.315698624,10.25467682, 
149,1257698926,3.955876112,10.61912727,10.94192123, 
150,1257715593,5.003902912,11.57476521,11.615200999999999, 
151,1257732260,5.319524765,11.3259201,11.93907642, 
152,1257748927,4.782075882,10.71919727,11.65677071, 
153,1257765594,4.13823843,10.02667618,11.00893402, 
154,1257782261,3.5926737789999996,9.356549263,10.12747669, 
155,1257798928,3.08611393,7.69449091,9.820599556, 
156,1257815595,2.766205549,5.627513409,9.615446091, 
157,1257832262,2.390322447,4.50349617,9.112312317, 
158,1257848929,2.222190142,2.9286961560000004,8.009076118, 
159,1257865596,1.9011540409999999,1.9248816969999998,6.809789181, 
160,1257882263,1.072847009,1.6446346040000002,6.239146709, 
161,1257898930,0.6398661729999999,0.39731419100000004,5.840166569, 
162,1257915597,0.342339635,-0.5546854729999999,5.603196621, 
163,1257932264,0.019510638,-0.201061562,4.869499683, 
164,1257948931,-0.720336795,0.517316282,3.806783199, 
165,1257965598,-1.349178314,0.929704905,3.590927839, 
166,1257982265,-2.311928272,2.122007608,3.9446008210000003, 
167,1257998932,-3.991811752,5.891011715,4.0046134, 
168,1258015599,-6.572732925,13.78065109,2.76936388, 
169,1258032266,-10.19530296,20.11530304,5.831147194, 
170,1258048933,-12.77806759,22.15720367,9.378171921, 
171,1258065600,-10.993315699999998,21.49159622,6.826515197999999, 
172,1258082267,-6.747612952999999,22.13365173,4.450618267, 
173,1258098934,-2.532170057,22.50335884,3.695521355, 
174,1258115601,0.301210463,22.1674118,2.7841918469999998, 
175,1258132268,0.364425987,20.57299042,2.082311153, 
176,1258148935,-0.46446529,17.46596718,1.5180655719999998, 
177,1258165602,-0.612456501,15.31585693,0.9018672109999999, 
178,1258182269,-1.1932497020000001,14.97374439,0.566720009, 
179,1258198936,-1.317095757,12.27595997,0.311258912, 
180,1258215603,-0.43961545799999996,9.128778458,0.036591236, 
181,1258232270,0.9500956540000001,5.433727264,0.6154096720000001, 
182,1258248937,1.29787004,4.836176872,0.9335150720000001, 
183,1258265604,0.746124268,5.209281445,0.442584187, 
184,1258282271,0.547855616,3.1034381389999997,0.058105573, 
185,1258298938,0.9789086579999999,0.25913026899999997,-0.18171164399999998, 
186,1258315605,1.213837385,-0.43024376,-0.110595725, 
187,1258332272,0.87496078,0.239371747,-0.054211630999999996, 
188,1258348939,1.474219322,-0.623714149,-0.298546255, 
189,1258365606,2.034837484,-1.4007288219999998,-1.027192235, 
190,1258382273,2.120800734,-1.9977983240000001,-2.283347845, 
191,1258398940,2.121203184,-1.5082829,-2.743175745, 
192,1258415607,3.756723881,-0.46378624399999996,-1.840871453, 
193,1258432274,7.312883854,-1.1754324440000001,-1.7920614480000001, 
194,1258448941,9.094735146,-3.9555308819999997,-0.60975945, 
195,1258465608,11.13218784,-7.116867065,1.8416826730000002, 
196,1258482275,13.1499424,-10.29019547,3.7861394880000003, 
197,1258498942,12.80935764,-13.24950695,4.222474575, 
198,1258515609,12.00333786,-11.624987599999999,3.949050188, 
199,1258532276,12.76094532,-7.878741741,2.8075752260000004, 
200,1258548943,12.90112495,-4.116028309,0.99754411, 
201,1258565610,12.24854755,-0.275932699,-1.147962809, 
202,1258582277,11.63295555,1.411067963,-2.390803337, 
203,1258598944,11.61133003,1.294436455,-2.911282778, 
204,1258615611,10.97058964,-0.036262624,-2.3492155080000003, 
205,1258632278,10.20363045,-1.301493526,-1.2879838940000001, 
206,1258648945,9.607435226,-2.1806654930000002,-0.44651565, 
207,1258665612,9.368252754,-3.1116878989999996,-0.060360968, 
208,1258682279,9.030423164,-3.5965716839999997,0.462447286, 
209,1258698946,9.012969971,-3.924930573,0.548778474, 
210,1258715613,9.152970314,-4.75940609,0.579905689, 
211,1258732280,9.306434631,-5.35050106,0.515764058, 
212,1258748947,9.625326157,-5.751051903,0.140133113, 
213,1258765614,9.708903312999999,-5.780125141,-0.008152558, 
214,1258782281,9.448027611,-4.968800068,-0.284877926, 
215,1258798948,8.65982914,-3.9853672980000003,-0.266147643, 
216,1258815615,7.3080911639999995,-3.0066454410000003,0.8220099209999999, 
217,1258832282,6.224222182999999,-2.243654013,1.236186862, 
218,1258848949,5.2482795719999995,-1.8270293469999999,1.4868905540000001, 
219,1258865616,4.247404575,-0.05479244900000001,1.2172635790000002, 
220,1258882283,3.266721725,1.324548721,-0.571487188, 
221,1258898950,1.2330046890000002,3.4393742080000003,-1.5384055380000001, 
222,1258915617,-0.8136611579999999,5.708159923999999,0.142353445, 
223,1258932284,-1.6535803080000002,5.3140277860000005,0.868075252, 
224,1258948951,-2.078057289,3.650665998,0.004559172, 
225,1258965618,-3.965355158,5.511125087999999,1.00681591, 
226,1258982285,-5.7417202000000005,7.89376688,3.901216507, 
227,1258998952,-5.916565895,7.754561901000001,6.497009277, 
228,1259015619,-5.034673214,5.425632,7.254897594, 
229,1259032286,-4.080368996,3.978233337,6.3336553570000005, 
230,1259048953,-4.189399719,4.320124626,5.383733273, 
231,1259065620,-5.506207943,7.095424652,4.925339698999999, 
232,1259082287,-6.427435397999999,8.570699692,5.016952515, 
233,1259098954,-7.0210886,9.242829322999999,4.838213444, 
234,1259115621,-7.677855492000001,8.696228981,5.3400368689999995, 
235,1259132288,-8.144874573,7.812288284,6.167488575, 
236,1259148955,-8.50819397,6.771606922,6.638374805, 
237,1259165622,-9.537671089,5.992301941,6.697103024, 
238,1259182289,-11.06921959,5.109580994,7.224185943999999, 
239,1259198956,-12.08654594,4.306550503,7.823643207999999, 
240,1259215623,-12.34399605,3.72168231,8.060088158, 
241,1259232290,-12.38908863,3.009766817,7.714339256000001, 
242,1259248957,-12.65272045,1.787106276,7.277641772999999, 
243,1259265624,-13.11021614,0.59579891,6.966226578, 
244,1259282291,-13.92104816,0.6622788310000001,6.64912796, 
245,1259298958,-14.41688728,1.112558126,6.265294552, 
246,1259315625,-14.09562016,1.778846979,5.504686832000001, 
247,1259332292,-13.43993759,2.075986624,5.128864765, 
248,1259348959,-12.6844511,1.093182206,5.435664654, 
249,1259365626,-12.00609016,-0.029137943,5.938214302, 
250,1259382293,-11.44380188,-0.536002278,5.937508583, 
251,1259398960,-10.85648537,-1.120198488,5.172861576, 
252,1259415627,-10.51152611,-1.3047732109999999,4.469799042, 
253,1259432294,-10.29535484,-1.435923696,3.9248511789999996, 
254,1259448961,-10.29415798,-1.1013906,3.595671177, 
255,1259465628,-9.953794478999999,-1.092367649,3.1573936939999996, 
256,1259482295,-9.655453682000001,-1.670012236,3.0757920739999998, 
257,1259498962,-9.474123001,-2.482281685,3.113990545, 
258,1259515629,-9.583647727999999,-2.511514425,3.1560685630000003, 
259,1259532296,-9.601345062,-2.843236446,3.3155660630000003, 
260,1259548963,-9.418627739,-3.254798889,3.177279234, 
261,1259565630,-9.400050163,-3.0823946,3.03326726, 
262,1259582297,-9.428921699999998,-2.3031735419999997,2.772645235, 
263,1259598964,-9.481963158,-1.732034922,2.4903750419999997, 
264,1259615631,-9.551071167,-1.7870305780000002,2.396722794, 
265,1259632298,-9.579246521,-2.059119225,2.356244802, 
266,1259648965,-9.594244957,-1.98758471,2.276794672, 
267,1259665632,-9.461021423,-2.019057989,2.075644493, 
268,1259682299,-9.416632652,-2.0462262630000003,1.921422243, 
269,1259698966,-9.485022545,-2.202068567,1.7739934919999998, 
270,1259715633,-9.464531897999999,-2.605686188,1.7394409180000001, 
271,1259732300,-9.388689041000001,-2.7871475219999997,1.7837756869999999, 
272,1259748967,-9.318602562,-2.885571241,1.7390549180000001, 
273,1259765634,-9.111833572,-3.239497185,1.6173347230000001, 
274,1259782301,-9.028535843,-3.09485364,1.628337145, 
275,1259798968,-9.164017677,-2.6591856480000002,1.666210294, 
276,1259815635,-9.288173676,-2.4021232130000003,1.642354846, 
277,1259832302,-9.261471748,-2.497501373,1.5967701669999999, 
278,1259848969,-9.339819907999999,-2.654132843,1.58362174, 
279,1259865636,-9.326482773,-2.880818605,1.636976719, 
280,1259882303,-9.285757065,-2.853003263,1.726461768, 
281,1259898970,-9.129244803999999,-2.801962137,1.709523797, 
282,1259915637,-9.003238677999999,-2.824936867,1.708973527, 
283,1259932304,-8.947382927,-2.7632730010000004,1.75836277, 
284,1259948971,-8.901415825,-2.758899927,1.7197085619999999, 
285,1259965638,-8.873888969,-2.937513351,1.699922323, 
286,1259982305,-8.880218506,-2.895855427,1.737374067, 
287,1259998972,-8.81819725,-2.82828331,1.713713646, 
288,1260015639,-8.830653191,-2.6372504230000002,1.7125020030000002, 
289,1260032306,-8.923321724,-2.436584473,1.734674215, 
290,1260048973,-8.994784355,-2.497936964,1.76155746, 
291,1260065640,-8.990844727,-2.60803318,1.862810373, 
292,1260082307,-8.946762085,-2.661881208,1.968261957, 
293,1260098974,-8.929831505,-2.7349202630000002,2.051894903, 
294,1260115641,-8.950660706,-2.738798857,2.1279163359999997, 
295,1260132308,-9.003913879,-2.5964381690000002,2.148054361, 
296,1260148975,-9.081097603,-2.452997684,2.1728155609999997, 
297,1260165642,-9.097700119,-2.432749748,2.1765575409999998, 
298,1260182309,-9.161389351,-2.561908007,2.218097925, 
299,1260198976,-9.179808617,-2.774534225,2.293006182, 
300,1260215643,-9.158203125,-2.8192317489999996,2.3306443690000003, 
301,1260232310,-9.101476669,-2.816792488,2.318065643, 
302,1260248977,-9.081515312,-2.8702664380000003,2.263925076, 
303,1260265644,-9.054283142000001,-2.879821539,2.255712748, 
304,1260282311,-9.031661987,-2.9348540310000004,2.25800252, 
305,1260298978,-9.029713631,-3.009454727,2.2235322, 
306,1260315645,-9.044740677,-2.9814870360000003,2.226757765, 
307,1260332312,-9.044568062,-2.9483730789999996,2.1846725940000002, 
308,1260348979,-9.080974579,-2.8757524489999997,2.17625308, 
309,1260365646,-9.086286545,-2.943456888,2.142042637, 
310,1260382313,-9.082893372000001,-3.0433816910000004,2.12320447, 
311,1260398980,-9.089484215,-3.0674161910000004,2.0893042090000002, 
312,1260415647,-9.047286033999999,-3.050445318,2.02055192, 
313,1260432314,-9.08095932,-2.968256712,1.995474577, 
314,1260448981,-9.091644287000001,-2.875660658,1.976941109, 
315,1260465648,-9.072497367999999,-2.857556343,1.994990587, 
316,1260482315,-9.053028107000001,-2.909704208,1.956041455, 
317,1260498982,-9.02172184,-2.962569237,1.9391020540000001, 
318,1260515649,-8.986036301,-2.97438097,1.944832444, 
319,1260532316,-9.007195473,-2.9732165339999996,1.94716084, 
320,1260548983,-9.047449112,-2.974627972,1.982517958, 
321,1260565650,-9.077651024,-2.950088024,2.01988554, 
322,1260582317,-9.099172592,-2.858581066,2.006775379, 
323,1260598984,-9.170321465,-2.891509295,2.030727625, 
324,1260615651,-9.191200256,-3.0157752039999997,2.098720551, 
325,1260632318,-9.104892731,-3.031784534,2.096457243, 
326,1260648985,-8.939401627,-3.014086008,2.107725382, 
327,1260665652,-8.779132843,-2.93940258,2.094781399, 
328,1260682319,-8.796999931,-2.8391847610000003,2.113627672, 
329,1260698986,-8.89907074,-2.7725837230000003,2.164429665, 
330,1260715653,-8.921267509,-2.7575831410000005,2.166580915, 
331,1260732320,-8.84545517,-2.7063698769999998,2.13518095, 
332,1260748987,-8.863042831,-2.642697096,2.14274478, 
333,1260765654,-8.942090034,-2.625199556,2.177813053, 
334,1260782321,-9.001836777000001,-2.6162984369999998,2.17467618, 
335,1260798988,-9.032938957,-2.6165289880000002,2.191615105, 
336,1260815655,-9.039843559,-2.5812482830000003,2.2057893280000003, 
337,1260832322,-9.020750046,-2.458805799,2.226487398, 
338,1260848989,-9.06283474,-2.38675189,2.205928564, 
339,1260865656,-9.140645027,-2.346528769,2.21553731, 
340,1260882323,-9.153840065,-2.409034014,2.229430914, 
341,1260898990,-9.128726959,-2.47768116,2.233260393, 
342,1260915657,-9.135613441,-2.57194829,2.231364727, 
343,1260932324,-9.177711487,-2.605465412,2.247327566, 
344,1260948991,-9.188488007,-2.674623013,2.214268923, 
345,1260965658,-9.211541176,-2.655058861,2.193217278, 
346,1260982325,-9.23391819,-2.7313230039999996,2.1661744119999997, 
347,1260998992,-9.205843925,-2.7481966019999997,2.160357475, 
348,1261015659,-9.177184105,-2.6938836569999998,2.1280591490000003, 
349,1261032326,-9.179899216,-2.620254755,2.121910095, 
350,1261048993,-9.156243324,-2.6225872040000002,2.130506516, 
351,1261065660,-9.16496563,-2.5835337640000002,2.1648156640000003, 
352,1261082327,-9.121842383999999,-2.6199209690000003,2.119278431, 
353,1261098994,-9.086466789,-2.658319473,2.090594292, 
354,1261115661,-9.098678589,-2.687378645,2.074902058, 
355,1261132328,-9.123193741,-2.7572171689999996,2.023015022, 
356,1261148995,-9.221928596,-2.7635803219999997,1.973788261, 
357,1261165662,-9.34526062,-2.7442052360000004,1.941794395, 
358,1261182329,-9.471776009,-2.610424042,1.9248481990000001, 
359,1261198996,-9.509049416,-2.5737342830000003,1.8522472380000001, 
360,1261215663,-9.529196739,-2.574710369,1.826146126, 
361,1261232330,-9.478067398,-2.636949062,1.77012074, 
362,1261248997,-9.346173286,-2.739419699,1.688201904, 
363,1261265664,-9.198149681,-2.684492588,1.6415021419999998, 
364,1261282331,-9.102597237000001,-2.588321924,1.5417394640000002, 
365,1261298998,-9.134288788,-2.5546004769999997,1.4550951719999998, 
366,1261315665,-9.282671928,-2.526104689,1.41155982, 
367,1261332332,-9.415132522999999,-2.561278582,1.2936891320000001, 
368,1261348999,-9.49730587,-2.639199495,1.2003432509999998, 
369,1261365666,-9.557627678,-2.60152626,1.139771938, 
370,1261382333,-9.598866463,-2.5744523999999998,1.105756283, 
371,1261399000,-9.630277634,-2.629418612,1.126663566, 
372,1261415667,-9.625092506,-2.63564539,1.168020487, 
373,1261432334,-9.591832161000001,-2.6877255439999996,1.241855621, 
374,1261449001,-9.55035305,-2.763002396,1.263959408, 
375,1261465668,-9.436397552,-2.858317852,1.3431487080000002, 
376,1261482335,-9.278331757,-2.93787837,1.3842359780000002, 
377,1261499002,-9.206851959,-2.98659277,1.419845819, 
378,1261515669,-9.163915634,-3.122574568,1.5046255590000002, 
379,1261532336,-9.175005913,-3.227926493,1.6049971580000002, 
380,1261549003,-9.19879818,-3.2904648780000003,1.6703202719999999, 
381,1261565670,-9.154456139,-3.2693905830000003,1.687897325, 
382,1261582337,-9.122128487000001,-3.238995314,1.695390463, 
383,1261599004,-9.099212646,-3.175848722,1.7261538509999999, 
384,1261615671,-9.126541138,-3.124700546,1.7470240590000001, 
385,1261632338,-9.156603813,-3.0082204339999996,1.755999088, 
386,1261649005,-9.129052162,-2.9264628889999997,1.7388014790000001, 
387,1261665672,-9.135457039,-2.7277779580000003,1.774919748, 
388,1261682339,-9.096530914,-2.576879025,1.79400754, 
389,1261699006,-9.033968925,-2.522556305,1.822595239, 
390,1261715673,-9.023143767999999,-2.532501221,1.861626148, 
391,1261732340,-9.008450508,-2.492547989,1.916401505, 
392,1261749007,-9.050575256,-2.382777452,1.965452194, 
393,1261765674,-9.118414879,-2.353636265,2.022464991, 
394,1261782341,-9.119203568,-2.340084076,2.0454654690000003, 
395,1261799008,-9.078780174,-2.34149456,2.055018425, 
396,1261815675,-9.012273788,-2.370027542,2.081943512, 
397,1261832342,-8.983382225,-2.3990132809999998,2.107565641, 
398,1261849009,-8.989089012,-2.510463953,2.123948097, 
399,1261865676,-9.02976799,-2.650937796,2.112896442, 
400,1261882343,-9.044131279,-2.731520891,2.112670422, 
401,1261899010,-8.995913506,-2.801886082,2.0850567819999997, 
402,1261915677,-8.966280937,-2.8299422260000004,2.04456687, 
